File: data-raw/raw_biomass/CL.csv
#EXPORTTYPE:                 ,DATA SINGLE
#FILE:                       ,CL.ngb-st9
#FORMAT:                     ,NETZSCH5
#FTYPE:                      ,ANSI
#IDENTITY:                   ,Saras
#DECIMAL:                    ,POINT
#SEPARATOR:                  ,COMMA
#MTYPE:                      ,TG
#INSTRUMENT:                 ,NETZSCH TG 209F1 Libra
#PROJECT:                    ,IL
#DATE/TIME:                  ,30/05/2017 2:08:57 PM (UTC+10)
#CORR. FILE:                 ,
#TEMPCAL:                    ,TCALZERO.TCX
#LABORATORY:                 ,Mulvaney
#OPERATOR:                   ,JGC
#REMARK:                     ,Training run
#SAMPLE:                     ,cellulose
#SAMPLE MASS /mg:            ,17.1559
#MATERIAL:                   ,CZTSE
#TYPE OF CRUCIBLE:           ,Al2O3
#SAMPLE CRUCIBLE MASS /mg:   ,312.1469
#REFERENCE CRUCIBLE MASS /mg:,
#M.RANGE /mg:                ,2000
#CORR. CODE:                 ,090
#RANGE:                      ,32°C/10.0(K/min)/800°C
#SEGMENT:                    ,S1/1
#SEG. 1:                     ,32°C/10.0(K/min)/800°C

##Temp./°C,Time/min,Mass loss/mg
 31.59700, 0.00000,-1.717149e-003
 32.19700, 0.18575,-3.825144e-003
 32.79700, 0.27248,-6.055989e-003
 33.39700, 0.35117,-8.554557e-003
 33.99700, 0.42049,-1.036504e-002
 34.59700, 0.48310,-1.217534e-002
 35.19700, 0.54158,-1.386314e-002
 35.79700, 0.59699,-1.605443e-002
 36.39700, 0.64995,-1.843143e-002
 36.99700, 0.70104,-2.111266e-002
 37.59700, 0.75076,-2.457738e-002
 38.19700, 0.79949,-2.808040e-002
 38.79700, 0.84751,-3.183700e-002
 39.39700, 0.89503,-3.573104e-002
 39.99700, 0.94228,-3.931378e-002
 40.59700, 0.98940,-4.289405e-002
 41.19700, 1.03655,-4.654181e-002
 41.79700, 1.08388,-5.074168e-002
 42.39700, 1.13153,-5.568120e-002
 42.99700, 1.17960,-6.056939e-002
 43.59700, 1.22825,-6.574265e-002
 44.19700, 1.27756,-7.090702e-002
 44.79700, 1.32761,-7.587981e-002
 45.39700, 1.37856,-8.138866e-002
 45.99700, 1.43041,-8.761162e-002
 46.59700, 1.48328,-9.393578e-002
 47.19700, 1.53722,      -0.10115
 47.79700, 1.59222,      -0.10870
 48.39700, 1.64834,      -0.11660
 48.99700, 1.70554,      -0.12565
 49.59700, 1.76379,      -0.13457
 50.19700, 1.82311,      -0.14397
 50.79700, 1.88326,      -0.15371
 51.39700, 1.94420,      -0.16389
 51.99700, 2.00575,      -0.17417
 52.59700, 2.06791,      -0.18507
 53.19700, 2.13048,      -0.19666
 53.79700, 2.19326,      -0.20852
 54.39700, 2.25617,      -0.22051
 54.99700, 2.31909,      -0.23273
 55.59700, 2.38201,      -0.24551
 56.19700, 2.44480,      -0.25894
 56.79700, 2.50727,      -0.27182
 57.39700, 2.56949,      -0.28504
 57.99700, 2.63131,      -0.29885
 58.59700, 2.69282,      -0.31274
 59.19700, 2.75421,      -0.32758
 59.79700, 2.81536,      -0.34222
 60.39700, 2.87627,      -0.35664
 60.99700, 2.93677,      -0.37169
 61.59700, 2.99709,      -0.38702
 62.19700, 3.05721,      -0.40253
 62.79700, 3.11716,      -0.41857
 63.39700, 3.17685,      -0.44785
 63.99700, 3.23627,      -0.45946
 64.59700, 3.29568,      -0.47255
 65.19700, 3.35501,      -0.48879
 65.79700, 3.41440,      -0.51067
 66.39700, 3.47382,      -0.52435
 66.99700, 3.53315,      -0.53945
 67.59700, 3.59250,      -0.56380
 68.19700, 3.65182,      -0.57721
 68.79700, 3.71113,      -0.60345
 69.39700, 3.77050,      -0.61663
 69.99700, 3.82993,      -0.64191
 70.59700, 3.88940,      -0.65429
 71.19700, 3.94896,      -0.67754
 71.79700, 4.00852,      -0.69095
 72.39700, 4.06808,      -0.71838
 72.99700, 4.12770,      -0.73840
 73.59700, 4.18731,      -0.75447
 74.19700, 4.24692,      -0.76799
 74.79700, 4.30645,      -0.79242
 75.39700, 4.36601,      -0.80599
 75.99700, 4.42560,      -0.83336
 76.59700, 4.48532,      -0.85086
 77.19700, 4.54510,      -0.86447
 77.79700, 4.60486,      -0.89289
 78.39700, 4.66462,      -0.90549
 78.99700, 4.72436,      -0.93048
 79.59700, 4.78418,      -0.95021
 80.19700, 4.84398,      -0.96930
 80.79700, 4.90378,      -0.98147
 81.39700, 4.96357,      -1.00781
 81.99700, 5.02345,      -1.02217
 82.59700, 5.08340,      -1.03596
 83.19700, 5.14317,      -1.06167
 83.79700, 5.20287,      -1.07450
 84.39700, 5.26240,      -1.08879
 84.99700, 5.32208,      -1.11585
 85.59700, 5.38188,      -1.12829
 86.19700, 5.44167,      -1.14362
 86.79700, 5.50151,      -1.17206
 87.39700, 5.56134,      -1.18383
 87.99700, 5.62122,      -1.19758
 88.59700, 5.68112,      -1.21151
 89.19700, 5.74099,      -1.22595
 89.79700, 5.80081,      -1.24790
 90.39700, 5.86059,      -1.26459
 90.99700, 5.92037,      -1.27791
 91.59700, 5.98026,      -1.29868
 92.19700, 6.04011,      -1.31625
 92.79700, 6.09988,      -1.32750
 93.39700, 6.15956,      -1.33918
 93.99700, 6.21927,      -1.35235
 94.59700, 6.27903,      -1.37870
 95.19700, 6.33884,      -1.38785
 95.79700, 6.39864,      -1.39822
 96.39700, 6.45844,      -1.41010
 96.99700, 6.51829,      -1.42257
 97.59700, 6.57829,      -1.43505
 98.19700, 6.63850,      -1.44906
 98.79700, 6.69882,      -1.46273
 99.39700, 6.75922,      -1.47514
 99.99700, 6.81963,      -1.48706
100.597, 6.87994,      -1.49945
101.197, 6.94009,      -1.51213
101.797, 7.00006,      -1.52465
102.397, 7.05992,      -1.53655
102.997, 7.11972,      -1.54802
103.597, 7.17950,      -1.55855
104.197, 7.23929,      -1.56887
104.797, 7.29924,      -1.58022
105.397, 7.35917,      -1.59113
105.997, 7.41919,      -1.60223
106.597, 7.47913,      -1.61252
107.197, 7.53910,      -1.62223
107.797, 7.59914,      -1.63212
108.397, 7.65922,      -1.64282
108.997, 7.71936,      -1.65298
109.597, 7.77948,      -1.66245
110.197, 7.83947,      -1.67107
110.797, 7.89948,      -1.67896
111.397, 7.95953,      -1.68746
111.997, 8.01968,      -1.69717
112.597, 8.07987,      -1.70649
113.197, 8.14002,      -1.71611
113.797, 8.20014,      -1.72501
114.397, 8.26024,      -1.73339
114.997, 8.32027,      -1.74070
115.597, 8.38028,      -1.74788
116.197, 8.44028,      -1.75558
116.797, 8.50033,      -1.76395
117.397, 8.56053,      -1.77260
117.997, 8.62076,      -1.78149
118.597, 8.68103,      -1.79027
119.197, 8.74118,      -1.79694
119.797, 8.80123,      -1.80191
120.397, 8.86121,      -1.80828
120.997, 8.92115,      -1.81468
121.597, 8.98111,      -1.82133
122.197, 9.04110,      -1.82801
122.797, 9.10115,      -1.83586
123.397, 9.16125,      -1.84384
123.997, 9.22142,      -1.85105
124.597, 9.28157,      -1.85792
125.197, 9.34171,      -1.86390
125.797, 9.40179,      -1.86926
126.397, 9.46185,      -1.87581
126.997, 9.52195,      -1.88145
127.597, 9.58196,      -1.88718
128.197, 9.64195,      -1.89292
128.797, 9.70189,      -1.89927
129.397, 9.76185,      -1.90580
129.997, 9.82190,      -1.91166
130.597, 9.88196,      -1.91770
131.197, 9.94203,      -1.92267
131.797,10.00207,      -1.92830
132.397,10.06204,      -1.93430
132.997,10.12200,      -1.93915
133.597,10.18190,      -1.94470
134.197,10.24182,      -1.95004
134.797,10.30170,      -1.95466
135.397,10.36155,      -1.95899
135.997,10.42137,      -1.96254
136.597,10.48119,      -1.96669
137.197,10.54110,      -1.97150
137.797,10.60104,      -1.97665
138.397,10.66101,      -1.98238
138.997,10.72105,      -1.98721
139.597,10.78111,      -1.99123
140.197,10.84117,      -1.99616
140.797,10.90117,      -2.00057
141.397,10.96116,      -2.00466
141.997,11.02111,      -2.00880
142.597,11.08101,      -2.01259
143.197,11.14088,      -2.01614
143.797,11.20081,      -2.01961
144.397,11.26078,      -2.02283
144.997,11.32074,      -2.02599
145.597,11.38070,      -2.02982
146.197,11.44063,      -2.03446
146.797,11.50060,      -2.03738
147.397,11.56060,      -2.03963
147.997,11.62060,      -2.04363
148.597,11.68059,      -2.04748
149.197,11.74060,      -2.05081
149.797,11.80060,      -2.05432
150.397,11.86058,      -2.05783
150.997,11.92057,      -2.06060
151.597,11.98063,      -2.06364
152.197,12.04075,      -2.06681
152.797,12.10084,      -2.07004
153.397,12.16086,      -2.07247
153.997,12.22084,      -2.07504
154.597,12.28083,      -2.07696
155.197,12.34089,      -2.07937
155.797,12.40096,      -2.08240
156.397,12.46100,      -2.08561
156.997,12.52107,      -2.08793
157.597,12.58116,      -2.09034
158.197,12.64129,      -2.09275
158.797,12.70138,      -2.09516
159.397,12.76144,      -2.09719
159.997,12.82151,      -2.09881
160.597,12.88165,      -2.10022
161.197,12.94174,      -2.10163
161.797,13.00173,      -2.10386
162.397,13.06163,      -2.10607
162.997,13.12151,      -2.10808
163.597,13.18140,      -2.10961
164.197,13.24132,      -2.11067
164.797,13.30125,      -2.11184
165.397,13.36119,      -2.11322
165.997,13.42113,      -2.11513
166.597,13.48114,      -2.11689
167.197,13.54117,      -2.11839
167.797,13.60121,      -2.11990
168.397,13.66129,      -2.12190
168.997,13.72138,      -2.12453
169.597,13.78145,      -2.12665
170.197,13.84157,      -2.12806
170.797,13.90164,      -2.12947
171.397,13.96165,      -2.13069
171.997,14.02167,      -2.13170
172.597,14.08166,      -2.13271
173.197,14.14166,      -2.13393
173.797,14.20166,      -2.13505
174.397,14.26163,      -2.13626
174.997,14.32166,      -2.13768
175.597,14.38169,      -2.13909
176.197,14.44169,      -2.14061
176.797,14.50163,      -2.14192
177.397,14.56150,      -2.14244
177.997,14.62135,      -2.14275
178.597,14.68118,      -2.14328
179.197,14.74104,      -2.14453
179.797,14.80095,      -2.14561
180.397,14.86100,      -2.14623
180.997,14.92108,      -2.14744
181.597,14.98120,      -2.14903
182.197,15.04138,      -2.15086
182.797,15.10150,      -2.15269
183.397,15.16161,      -2.15431
183.997,15.22163,      -2.15503
184.597,15.28159,      -2.15545
185.197,15.34156,      -2.15577
185.797,15.40153,      -2.15680
186.397,15.46152,      -2.15792
186.997,15.52156,      -2.15874
187.597,15.58155,      -2.15945
188.197,15.64151,      -2.16009
188.797,15.70145,      -2.16062
189.397,15.76138,      -2.16124
189.997,15.82138,      -2.16185
190.597,15.88140,      -2.16267
191.197,15.94148,      -2.16349
191.797,16.00163,      -2.16463
192.397,16.06186,      -2.16596
192.997,16.12202,      -2.16708
193.597,16.18211,      -2.16871
194.197,16.24203,      -2.17014
194.797,16.30191,      -2.17118
195.397,16.36180,      -2.17151
195.997,16.42163,      -2.17174
196.597,16.48152,      -2.17218
197.197,16.54139,      -2.17291
197.797,16.60135,      -2.17383
198.397,16.66134,      -2.17477
198.997,16.72140,      -2.17531
199.597,16.78152,      -2.17664
200.197,16.84166,      -2.17917
200.797,16.90184,      -2.18171
201.397,16.96193,      -2.18485
201.997,17.02191,      -2.18659
202.597,17.08187,      -2.18693
203.197,17.14178,      -2.18727
203.797,17.20174,      -2.18810
204.397,17.26174,      -2.18954
204.997,17.32171,      -2.19098
205.597,17.38171,      -2.19222
206.197,17.44168,      -2.19336
206.797,17.50161,      -2.19410
207.397,17.56150,      -2.19533
207.997,17.62140,      -2.19647
208.597,17.68139,      -2.19840
209.197,17.74139,      -2.20074
209.797,17.80134,      -2.20297
210.397,17.86123,      -2.20404
210.997,17.92110,      -2.20488
211.597,17.98103,      -2.20591
212.197,18.04099,      -2.20703
212.797,18.10102,      -2.20886
213.397,18.16108,      -2.21142
213.997,18.22117,      -2.21468
214.597,18.28131,      -2.21752
215.197,18.34143,      -2.22015
215.797,18.40157,      -2.22319
216.397,18.46169,      -2.22564
216.997,18.52176,      -2.22838
217.597,18.58183,      -2.23033
218.197,18.64190,      -2.23296
218.797,18.70198,      -2.23581
219.397,18.76204,      -2.23855
219.997,18.82203,      -2.24029
220.597,18.88196,      -2.24326
221.197,18.94181,      -2.24648
221.797,19.00165,      -2.25012
222.397,19.06150,      -2.25437
222.997,19.12145,      -2.25700
223.597,19.18141,      -2.26044
224.197,19.24145,      -2.26459
224.797,19.30148,      -2.26783
225.397,19.36150,      -2.27118
225.997,19.42142,      -2.27470
226.597,19.48131,      -2.27814
227.197,19.54122,      -2.28209
227.797,19.60111,      -2.28676
228.397,19.66099,      -2.29168
228.997,19.72084,      -2.29624
229.597,19.78080,      -2.30119
230.197,19.84081,      -2.30632
230.797,19.90086,      -2.31198
231.397,19.96091,      -2.31750
231.997,20.02098,      -2.32365
232.597,20.08102,      -2.32989
233.197,20.14109,      -2.33624
233.797,20.20119,      -2.34269
234.397,20.26127,      -2.34940
234.997,20.32129,      -2.35601
235.597,20.38123,      -2.36354
236.197,20.44115,      -2.37096
236.797,20.50107,      -2.37889
237.397,20.56104,      -2.38692
237.997,20.62096,      -2.39614
238.597,20.68092,      -2.40513
239.197,20.73937,      -2.41452
239.797,20.79643,      -2.42389
240.397,20.85370,      -2.43348
240.997,20.91147,      -2.44313
241.597,20.97252,      -2.45428
242.197,21.03414,      -2.46620
242.797,21.09586,      -2.47880
243.397,21.15742,      -2.49209
243.997,21.21867,      -2.50605
244.597,21.27964,      -2.51964
245.197,21.34039,      -2.53389
245.797,21.40097,      -2.54917
246.397,21.46139,      -2.57568
246.997,21.52163,      -2.59146
247.597,21.58168,      -2.60552
248.197,21.64162,      -2.62732
248.797,21.70149,      -2.65336
249.397,21.76136,      -2.67429
249.997,21.82125,      -2.69593
250.597,21.88110,      -2.71818
251.197,21.94089,      -2.74226
251.797,22.00059,      -2.76677
252.397,22.06024,      -2.79314
252.997,22.11991,      -2.81997
253.597,22.17967,      -2.84838
254.197,22.23946,      -2.87834
254.797,22.29923,      -2.90952
255.397,22.35899,      -2.94052
255.997,22.41867,      -2.97503
256.597,22.47841,      -3.01082
257.197,22.53814,      -3.04755
257.797,22.59789,      -3.08637
258.397,22.65762,      -3.12688
258.997,22.71730,      -3.16912
259.597,22.77697,      -3.21203
260.197,22.83672,      -3.25807
260.797,22.89648,      -3.30668
261.397,22.95630,      -3.35773
261.997,23.01605,      -3.40966
262.597,23.07573,      -3.46838
263.197,23.13540,      -3.52421
263.797,23.19508,      -3.58357
264.397,23.25489,      -3.64631
264.997,23.31475,      -3.71121
265.597,23.37465,      -3.77930
266.197,23.43455,      -3.85026
266.797,23.49442,      -3.92476
267.397,23.55424,      -4.00320
267.997,23.61395,      -4.08363
268.597,23.67347,      -4.16669
269.197,23.73296,      -4.25224
269.797,23.79242,      -4.33901
270.397,23.85199,      -4.42771
270.997,23.91160,      -4.52668
271.597,23.97134,      -4.61938
272.197,24.03115,      -4.72460
272.797,24.09100,      -4.82802
273.397,24.15087,      -4.93283
273.997,24.21080,      -5.03982
274.597,24.27083,      -5.14871
275.197,24.33090,      -5.25812
275.797,24.39106,      -5.36854
276.397,24.45139,      -5.48355
276.997,24.51191,      -5.59905
277.597,24.57260,      -5.71495
278.197,24.63335,      -5.82900
278.797,24.69414,      -5.93924
279.397,24.75499,      -6.04904
279.997,24.81586,      -6.15999
280.597,24.87671,      -6.26959
281.197,24.93758,      -6.37740
281.797,24.99846,      -6.48457
282.397,25.05939,      -6.58639
282.997,25.12028,      -6.68674
283.597,25.18116,      -6.78859
284.197,25.24197,      -6.88721
284.797,25.30269,      -6.98075
285.397,25.36329,      -7.07886
285.997,25.42374,      -7.16991
286.597,25.48399,      -7.26033
287.197,25.54407,      -7.34980
287.797,25.60400,      -7.43930
288.397,25.66378,      -7.52743
288.997,25.72350,      -7.61733
289.597,25.78318,      -7.71022
290.197,25.84289,      -7.80518
290.797,25.90256,      -7.90210
291.397,25.96215,      -8.00111
291.997,26.02175,      -8.09944
292.597,26.08161,      -8.19616
293.197,26.14203,      -8.29265
293.797,26.20320,      -8.38019
294.397,26.26514,      -8.46016
294.997,26.32775,      -8.52519
295.597,26.39079,      -8.57945
296.197,26.45387,      -8.62444
296.797,26.51666,      -8.66118
297.397,26.57891,      -8.69142
297.997,26.64060,      -8.71768
298.597,26.70170,      -8.74059
299.197,26.76232,      -8.76173
299.797,26.82251,      -8.77766
300.397,26.88238,      -8.78989
300.997,26.94196,      -8.80365
301.597,27.00131,      -8.81759
302.197,27.06038,      -8.83020
302.797,27.11935,      -8.84238
303.397,27.17819,      -8.85398
303.997,27.23701,      -8.86519
304.597,27.29583,      -8.87528
305.197,27.35467,      -8.88496
305.797,27.41358,      -8.89426
306.397,27.47257,      -8.90239
306.997,27.53162,      -8.91080
307.597,27.59075,      -8.91902
308.197,27.65001,      -8.92746
308.797,27.70934,      -8.93518
309.397,27.76881,      -8.94215
309.997,27.82836,      -8.94896
310.597,27.88793,      -8.95513
311.197,27.94752,      -8.96067
311.797,28.00710,      -8.96638
312.397,28.06678,      -8.97218
312.997,28.12657,      -8.97761
313.597,28.18645,      -8.98331
314.197,28.24632,      -8.98864
314.797,28.30627,      -8.99384
315.397,28.36629,      -8.99946
315.997,28.42633,      -9.00503
316.597,28.48639,      -9.01066
317.197,28.54641,      -9.01609
317.797,28.60646,      -9.02103
318.397,28.66651,      -9.02619
318.997,28.72655,      -9.03120
319.597,28.78652,      -9.03603
320.197,28.84654,      -9.04057
320.797,28.90656,      -9.04520
321.397,28.96657,      -9.04973
321.997,29.02655,      -9.05456
322.597,29.08651,      -9.05928
323.197,29.14643,      -9.06399
323.797,29.20631,      -9.06881
324.397,29.26616,      -9.07381
324.997,29.32607,      -9.07895
325.597,29.38608,      -9.08405
326.197,29.44612,      -9.08972
326.797,29.50606,      -9.09540
327.397,29.56599,      -9.10100
327.997,29.62591,      -9.10614
328.597,29.68588,      -9.11079
329.197,29.74587,      -9.11573
329.797,29.80592,      -9.12073
330.397,29.86597,      -9.12607
330.997,29.92595,      -9.13108
331.597,29.98583,      -9.13595
332.197,30.04564,      -9.14067
332.797,30.10550,      -9.14535
333.397,30.16547,      -9.14987
333.997,30.22539,      -9.15521
334.597,30.28531,      -9.16123
335.197,30.34525,      -9.16686
335.797,30.40535,      -9.17197
336.397,30.46548,      -9.17689
336.997,30.52564,      -9.18191
337.597,30.58577,      -9.18754
338.197,30.64585,      -9.19295
338.797,30.70588,      -9.19837
339.397,30.76581,      -9.20363
339.997,30.82575,      -9.20874
340.597,30.88569,      -9.21438
341.197,30.94563,      -9.22028
341.797,31.00559,      -9.22595
342.397,31.06561,      -9.23148
342.997,31.12566,      -9.23692
343.597,31.18574,      -9.24263
344.197,31.24573,      -9.24830
344.797,31.30569,      -9.25367
345.397,31.36559,      -9.25918
345.997,31.42557,      -9.26490
346.597,31.48553,      -9.27068
347.197,31.54549,      -9.27669
347.797,31.60536,      -9.28202
348.397,31.66525,      -9.28712
348.997,31.72517,      -9.29236
349.597,31.78517,      -9.29808
350.197,31.84513,      -9.30340
350.797,31.90514,      -9.30934
351.397,31.96514,      -9.31606
351.997,32.02521,      -9.32211
352.597,32.08529,      -9.32815
353.197,32.14536,      -9.33409
353.797,32.20544,      -9.34081
354.397,32.26546,      -9.34724
354.997,32.32549,      -9.35297
355.597,32.38551,      -9.35865
356.197,32.44548,      -9.36357
356.797,32.50534,      -9.36818
357.397,32.56520,      -9.37311
357.997,32.62507,      -9.37893
358.597,32.68509,      -9.38435
359.197,32.74509,      -9.39027
359.797,32.80512,      -9.39600
360.397,32.86513,      -9.40163
360.997,32.92523,      -9.40768
361.597,32.98537,      -9.41429
362.197,33.04547,      -9.42026
362.797,33.10554,      -9.42639
363.397,33.16555,      -9.43268
363.997,33.22555,      -9.43811
364.597,33.28557,      -9.44307
365.197,33.34562,      -9.44790
365.797,33.40576,      -9.45350
366.397,33.46595,      -9.45985
366.997,33.52613,      -9.46607
367.597,33.58626,      -9.47177
368.197,33.64625,      -9.47718
368.797,33.70615,      -9.48341
369.397,33.76601,      -9.48937
369.997,33.82586,      -9.49467
370.597,33.88590,      -9.50069
371.197,33.94600,      -9.50673
371.797,34.00626,      -9.51287
372.397,34.06659,      -9.51914
372.997,34.12684,      -9.52549
373.597,34.18697,      -9.53131
374.197,34.24694,      -9.53612
374.797,34.30693,      -9.54135
375.397,34.36697,      -9.54780
375.997,34.42708,      -9.55542
376.597,34.48712,      -9.56305
377.197,34.54710,      -9.56840
377.797,34.60708,      -9.57287
378.397,34.66707,      -9.57883
378.997,34.72715,      -9.58497
379.597,34.78727,      -9.59166
380.197,34.84737,      -9.59846
380.797,34.90742,      -9.60438
381.397,34.96742,      -9.61010
381.997,35.02736,      -9.61571
382.597,35.08727,      -9.62141
383.197,35.14720,      -9.62671
383.797,35.20715,      -9.63235
384.397,35.26724,      -9.63828
384.997,35.32738,      -9.64541
385.597,35.38754,      -9.65268
386.197,35.44767,      -9.65888
386.797,35.50778,      -9.66506
387.397,35.56788,      -9.67190
387.997,35.62795,      -9.67816
388.597,35.68802,      -9.68386
389.197,35.74807,      -9.68900
389.797,35.80806,      -9.69441
390.397,35.86810,      -9.69991
390.997,35.92816,      -9.70542
391.597,35.98825,      -9.71124
392.197,36.04843,      -9.71817
392.797,36.10862,      -9.72550
393.397,36.16891,      -9.73200
393.997,36.22911,      -9.73798
394.597,36.28922,      -9.74441
395.197,36.34916,      -9.75073
395.797,36.40904,      -9.75633
396.397,36.46894,      -9.76173
396.997,36.52887,      -9.76749
397.597,36.58888,      -9.77268
398.197,36.64896,      -9.77876
398.797,36.70907,      -9.78519
399.397,36.76926,      -9.79164
399.997,36.82939,      -9.79775
400.597,36.88954,      -9.80379
401.197,36.94970,      -9.81035
401.797,37.00982,      -9.81710
402.397,37.07000,      -9.82312
402.997,37.13020,      -9.82975
403.597,37.19028,      -9.83695
404.197,37.25026,      -9.84307
404.797,37.31009,      -9.84664
405.397,37.36993,      -9.85034
405.997,37.42996,      -9.85574
406.597,37.49019,      -9.86299
407.197,37.55052,      -9.87148
407.797,37.61088,      -9.87927
408.397,37.67118,      -9.88575
408.997,37.73135,      -9.89208
409.597,37.79138,      -9.89707
410.197,37.85126,      -9.90138
410.797,37.91113,      -9.90548
411.397,37.97096,      -9.91007
411.997,38.03090,      -9.91511
412.597,38.09090,      -9.92172
413.197,38.15100,      -9.92916
413.797,38.21116,      -9.93473
414.397,38.27138,      -9.94018
414.997,38.33157,      -9.94671
415.597,38.39180,      -9.95213
416.197,38.45200,      -9.95859
416.797,38.51221,      -9.96451
417.397,38.57229,      -9.96954
417.997,38.63235,      -9.97471
418.597,38.69239,      -9.98021
419.197,38.75251,      -9.98544
419.797,38.81265,      -9.99097
420.397,38.87273,      -9.99642
420.997,38.93278,     -10.00171
421.597,38.99277,     -10.00672
422.197,39.05279,     -10.01202
422.797,39.11292,     -10.01732
423.397,39.17313,     -10.02323
423.997,39.23340,     -10.02867
424.597,39.29373,     -10.03374
425.197,39.35405,     -10.03957
425.797,39.41447,     -10.04496
426.397,39.47493,     -10.05125
426.997,39.53533,     -10.05659
427.597,39.59575,     -10.05965
428.197,39.65611,     -10.06327
428.797,39.71659,     -10.06775
429.397,39.77713,     -10.07405
429.997,39.83773,     -10.08076
430.597,39.89822,     -10.08655
431.197,39.95867,     -10.09038
431.797,40.01891,     -10.09656
432.397,40.07906,     -10.10166
432.997,40.13890,     -10.10635
433.597,40.19854,     -10.11164
434.197,40.25808,     -10.11501
434.797,40.31750,     -10.11835
435.397,40.37700,     -10.12174
435.997,40.43653,     -10.12570
436.597,40.49617,     -10.13008
437.197,40.55591,     -10.13453
437.797,40.61565,     -10.13946
438.397,40.67541,     -10.14515
438.997,40.73517,     -10.14982
439.597,40.79485,     -10.15489
440.197,40.85455,     -10.15946
440.797,40.91424,     -10.16276
441.397,40.97401,     -10.16602
441.997,41.03384,     -10.16955
442.597,41.09377,     -10.17408
443.197,41.15372,     -10.17909
443.797,41.21370,     -10.18371
444.397,41.27369,     -10.18870
444.997,41.33374,     -10.19401
445.597,41.39376,     -10.19910
446.197,41.45373,     -10.20389
446.797,41.51361,     -10.20717
447.397,41.57347,     -10.21117
447.997,41.63343,     -10.21525
448.597,41.69347,     -10.22035
449.197,41.75353,     -10.22598
449.797,41.81357,     -10.23115
450.397,41.87351,     -10.23525
450.997,41.93341,     -10.23902
451.597,41.99332,     -10.24301
452.197,42.05332,     -10.24690
452.797,42.11335,     -10.25130
453.397,42.17334,     -10.25569
453.997,42.23332,     -10.25919
454.597,42.29324,     -10.26208
455.197,42.35320,     -10.26565
455.797,42.41329,     -10.27076
456.397,42.47352,     -10.27828
456.997,42.53384,     -10.28620
457.597,42.59410,     -10.29283
458.197,42.65426,     -10.29555
458.797,42.71421,     -10.30004
459.397,42.77401,     -10.30391
459.997,42.83363,     -10.30480
460.597,42.89317,     -10.30568
461.197,42.95284,     -10.30834
461.797,43.01277,     -10.31354
462.397,43.07302,     -10.32090
462.997,43.13335,     -10.32836
463.597,43.19363,     -10.33346
464.197,43.25371,     -10.33756
464.797,43.31364,     -10.34245
465.397,43.37350,     -10.34652
465.997,43.43337,     -10.35071
466.597,43.49330,     -10.35289
467.197,43.55332,     -10.35828
467.797,43.61335,     -10.36267
468.397,43.67331,     -10.36596
468.997,43.73327,     -10.36845
469.597,43.79325,     -10.37153
470.197,43.85328,     -10.37722
470.797,43.91332,     -10.38251
471.397,43.97333,     -10.38830
471.997,44.03328,     -10.39279
472.597,44.09318,     -10.39458
473.197,44.15304,     -10.39692
473.797,44.21305,     -10.40130
474.397,44.27325,     -10.40633
474.997,44.33353,     -10.41184
475.597,44.39367,     -10.41654
476.197,44.45365,     -10.41740
476.797,44.51359,     -10.41848
477.397,44.57374,     -10.42183
477.997,44.63402,     -10.42946
478.597,44.69429,     -10.43756
479.197,44.75438,     -10.44040
479.797,44.81421,     -10.44061
480.397,44.87405,     -10.44079
480.997,44.93400,     -10.44241
481.597,44.99417,     -10.44588
482.197,45.05446,     -10.45115
482.797,45.11478,     -10.45573
483.397,45.17507,     -10.46003
483.997,45.23525,     -10.46455
484.597,45.29534,     -10.46720
485.197,45.35541,     -10.46987
485.797,45.41547,     -10.47449
486.397,45.47550,     -10.47915
486.997,45.53545,     -10.48122
487.597,45.59535,     -10.48272
488.197,45.65525,     -10.48480
488.797,45.71508,     -10.48748
489.397,45.77491,     -10.48846
489.997,45.83481,     -10.49014
490.597,45.89483,     -10.49381
491.197,45.95492,     -10.49901
491.797,46.01500,     -10.50159
492.397,46.07504,     -10.50337
492.997,46.13508,     -10.50536
493.597,46.19516,     -10.50895
494.197,46.25527,     -10.51306
494.797,46.31530,     -10.51650
495.397,46.37520,     -10.51819
495.997,46.43507,     -10.51856
496.597,46.49499,     -10.51904
497.197,46.55511,     -10.52142
497.797,46.61536,     -10.52542
498.397,46.67562,     -10.52968
498.997,46.73580,     -10.53303
499.597,46.79579,     -10.53535
500.197,46.85570,     -10.53662
500.797,46.91551,     -10.53781
501.397,46.97528,     -10.53868
501.997,47.03509,     -10.53957
502.597,47.09496,     -10.54164
503.197,47.15494,     -10.54472
503.797,47.21496,     -10.54750
504.397,47.27498,     -10.54988
504.997,47.33500,     -10.55196
505.597,47.39498,     -10.55284
506.197,47.45494,     -10.55372
506.797,47.51490,     -10.55509
507.397,47.57501,     -10.55678
507.997,47.63514,     -10.56068
508.597,47.69533,     -10.56428
509.197,47.75546,     -10.56601
509.797,47.81560,     -10.56922
510.397,47.87574,     -10.57082
510.997,47.93581,     -10.57229
511.597,47.99582,     -10.57403
512.197,48.05576,     -10.57601
512.797,48.11575,     -10.57778
513.397,48.17583,     -10.58008
513.997,48.23591,     -10.58244
514.597,48.29593,     -10.58330
515.197,48.35594,     -10.58408
515.797,48.41583,     -10.58527
516.397,48.47575,     -10.58611
516.997,48.53561,     -10.58771
517.597,48.59546,     -10.58962
518.197,48.65532,     -10.59080
518.797,48.71518,     -10.59186
519.397,48.77511,     -10.59243
519.997,48.83517,     -10.59320
520.597,48.89532,     -10.59509
521.197,48.95548,     -10.59864
521.797,49.01561,     -10.60197
522.397,49.07564,     -10.60419
522.997,49.13565,     -10.60548
523.597,49.19555,     -10.60638
524.197,49.25538,     -10.60702
524.797,49.31523,     -10.60812
525.397,49.37516,     -10.60909
525.997,49.43514,     -10.60986
526.597,49.49515,     -10.61024
527.197,49.55512,     -10.61011
527.797,49.61506,     -10.60978
528.397,49.67496,     -10.60996
528.997,49.73488,     -10.61083
529.597,49.79487,     -10.61180
530.197,49.85498,     -10.61468
530.797,49.91523,     -10.61857
531.397,49.97553,     -10.62136
531.997,50.03572,     -10.62489
532.597,50.09581,     -10.62726
533.197,50.15580,     -10.62813
533.797,50.21583,     -10.62891
534.397,50.27584,     -10.63012
534.997,50.33580,     -10.63056
535.597,50.39566,     -10.63084
536.197,50.45554,     -10.63084
536.797,50.51547,     -10.63158
537.397,50.57547,     -10.63216
537.997,50.63550,     -10.63283
538.597,50.69553,     -10.63373
539.197,50.75551,     -10.63493
539.797,50.81543,     -10.63629
540.397,50.87529,     -10.63733
540.997,50.93517,     -10.63829
541.597,50.99514,     -10.63916
542.197,51.05519,     -10.63993
542.797,51.11533,     -10.64050
543.397,51.17556,     -10.64098
543.997,51.23572,     -10.64133
544.597,51.29574,     -10.64194
545.197,51.35561,     -10.64231
545.797,51.41550,     -10.64245
546.397,51.47556,     -10.64332
546.997,51.53585,     -10.64494
547.597,51.59627,     -10.64745
548.197,51.65668,     -10.64944
548.797,51.71690,     -10.65081
549.397,51.77690,     -10.65219
549.997,51.83669,     -10.65254
550.597,51.89644,     -10.65321
551.197,51.95619,     -10.65367
551.797,52.01598,     -10.65364
552.397,52.07594,     -10.65440
552.997,52.13610,     -10.65678
553.597,52.19639,     -10.65974
554.197,52.25670,     -10.66142
554.797,52.31679,     -10.66149
555.397,52.37666,     -10.66115
555.997,52.43643,     -10.66061
556.597,52.49620,     -10.66048
557.197,52.55615,     -10.66075
557.797,52.61610,     -10.66129
558.397,52.67607,     -10.66188
558.997,52.73606,     -10.66245
559.597,52.79616,     -10.66322
560.197,52.85635,     -10.66398
560.797,52.91664,     -10.66465
561.397,52.97694,     -10.66532
561.997,53.03718,     -10.66608
562.597,53.09735,     -10.66674
563.197,53.15745,     -10.66721
563.797,53.21757,     -10.66808
564.397,53.27774,     -10.66913
564.997,53.33795,     -10.66970
565.597,53.39815,     -10.67037
566.197,53.45823,     -10.67133
566.797,53.51819,     -10.67219
567.397,53.57803,     -10.67255
567.997,53.63788,     -10.67252
568.597,53.69781,     -10.67259
569.197,53.75800,     -10.67264
569.797,53.81836,     -10.67391
570.397,53.87884,     -10.67587
570.997,53.93921,     -10.67913
571.597,53.99930,     -10.68201
572.197,54.05915,     -10.68186
572.797,54.11870,     -10.68082
573.397,54.17828,     -10.67927
573.997,54.23805,     -10.67833
574.597,54.29809,     -10.67829
575.197,54.35837,     -10.67926
575.797,54.41875,     -10.68094
576.397,54.47908,     -10.68303
576.997,54.53920,     -10.68464
577.597,54.59909,     -10.68510
578.197,54.65884,     -10.68545
578.797,54.71858,     -10.68592
579.397,54.77835,     -10.68607
579.997,54.83811,     -10.68613
580.597,54.89796,     -10.68639
581.197,54.95790,     -10.68673
581.797,55.01797,     -10.68711
582.397,55.07802,     -10.68737
582.997,55.13807,     -10.68743
583.597,55.19817,     -10.68789
584.197,55.25828,     -10.68874
584.797,55.31846,     -10.69040
585.397,55.37859,     -10.69277
585.997,55.43863,     -10.69473
586.597,55.49858,     -10.69537
587.197,55.55854,     -10.69532
587.797,55.61850,     -10.69558
588.397,55.67846,     -10.69603
588.997,55.73841,     -10.69680
589.597,55.79842,     -10.69745
590.197,55.85843,     -10.69851
590.797,55.91840,     -10.69936
591.397,55.97826,     -10.69971
591.997,56.03804,     -10.70016
592.597,56.09780,     -10.70041
593.197,56.15752,     -10.70047
593.797,56.21718,     -10.70071
594.397,56.27686,     -10.70117
594.997,56.33662,     -10.70152
595.597,56.39651,     -10.70217
596.197,56.45652,     -10.70303
596.797,56.51658,     -10.70399
597.397,56.57668,     -10.70484
597.997,56.63674,     -10.70529
598.597,56.69672,     -10.70524
599.197,56.75676,     -10.70560
599.797,56.81688,     -10.70626
600.397,56.87703,     -10.70702
600.997,56.93733,     -10.70784
601.597,56.99756,     -10.70850
602.197,57.05760,     -10.70957
602.797,57.11741,     -10.71060
603.397,57.17709,     -10.71196
603.997,57.23679,     -10.71279
604.597,57.29672,     -10.71324
605.197,57.35669,     -10.71349
605.797,57.41668,     -10.71394
606.397,57.47659,     -10.71509
606.997,57.53648,     -10.71603
607.597,57.59640,     -10.71648
608.197,57.65642,     -10.71663
608.797,57.71646,     -10.71648
609.397,57.77648,     -10.71653
609.997,57.83652,     -10.71667
610.597,57.89662,     -10.71692
611.197,57.95691,     -10.71907
611.797,58.01731,     -10.72374
612.397,58.07766,     -10.72667
612.997,58.13776,     -10.72661
613.597,58.19769,     -10.72615
614.197,58.25757,     -10.72629
614.797,58.31750,     -10.72694
615.397,58.37756,     -10.72698
615.997,58.43769,     -10.72729
616.597,58.49782,     -10.72982
617.197,58.55783,     -10.73142
617.797,58.61774,     -10.73093
618.397,58.67774,     -10.73061
618.997,58.73786,     -10.73143
619.597,58.79805,     -10.73407
620.197,58.85823,     -10.73474
620.797,58.91837,     -10.73478
621.397,58.97852,     -10.73513
621.997,59.03862,     -10.73676
622.597,59.09874,     -10.73743
623.197,59.15881,     -10.73843
623.797,59.21884,     -10.74022
624.397,59.27879,     -10.74303
624.997,59.33863,     -10.74497
625.597,59.39848,     -10.74461
626.197,59.45843,     -10.74446
626.797,59.51860,     -10.74440
627.397,59.57886,     -10.74616
627.997,59.63918,     -10.74840
628.597,59.69948,     -10.74733
629.197,59.75972,     -10.75004
629.797,59.81979,     -10.75438
630.397,59.87970,     -10.75724
630.997,59.93965,     -10.75766
631.597,59.99973,     -10.75939
632.197,60.05994,     -10.76235
632.797,60.12011,     -10.76380
633.397,60.18015,     -10.76344
633.997,60.24010,     -10.76277
634.597,60.30006,     -10.76281
635.197,60.36001,     -10.76475
635.797,60.42009,     -10.76739
636.397,60.48021,     -10.77095
636.997,60.54030,     -10.77517
637.597,60.60044,     -10.77640
638.197,60.66053,     -10.77649
638.797,60.72048,     -10.77908
639.397,60.78028,     -10.78001
639.997,60.83992,     -10.77994
640.597,60.89964,     -10.77957
641.197,60.95949,     -10.77998
641.797,61.01955,     -10.78083
642.397,61.07973,     -10.78179
642.997,61.13993,     -10.78312
643.597,61.20002,     -10.78437
644.197,61.25984,     -10.78578
644.797,61.31962,     -10.78633
645.397,61.37955,     -10.78637
645.997,61.43976,     -10.78800
646.597,61.50018,     -10.79065
647.197,61.56069,     -10.79342
647.797,61.62129,     -10.79729
648.397,61.68188,     -10.80286
648.997,61.74232,     -10.80742
649.597,61.80244,     -10.80821
650.197,61.86227,     -10.80764
650.797,61.92212,     -10.80787
651.397,61.98207,     -10.80913
651.997,62.04225,     -10.81317
652.597,62.10254,     -10.81617
653.197,62.16282,     -10.81930
653.797,62.22314,     -10.82203
654.397,62.28334,     -10.82588
654.997,62.34349,     -10.82911
655.597,62.40349,     -10.83085
656.197,62.46342,     -10.83137
656.797,62.52336,     -10.83120
657.397,62.58340,     -10.83363
657.997,62.64366,     -10.83617
658.597,62.70405,     -10.84127
659.197,62.76434,     -10.84733
659.797,62.82447,     -10.85124
660.397,62.88443,     -10.85219
660.997,62.94440,     -10.85341
661.597,63.00445,     -10.85792
662.197,63.06453,     -10.85898
662.797,63.12475,     -10.86000
663.397,63.18508,     -10.86275
663.997,63.24546,     -10.86670
664.597,63.30572,     -10.87092
665.197,63.36583,     -10.87413
665.797,63.42582,     -10.87725
666.397,63.48575,     -10.88167
666.997,63.54556,     -10.88527
667.597,63.60531,     -10.88819
668.197,63.66513,     -10.89028
668.797,63.72512,     -10.89392
669.397,63.78530,     -10.89967
669.997,63.84555,     -10.90382
670.597,63.90567,     -10.90733
671.197,63.96556,     -10.91061
671.797,64.02541,     -10.91446
672.397,64.08522,     -10.91808
672.997,64.14513,     -10.92070
673.597,64.20509,     -10.92384
674.197,64.26510,     -10.92766
674.797,64.32517,     -10.93109
675.397,64.38521,     -10.93342
675.997,64.44531,     -10.93606
676.597,64.50554,     -10.93996
677.197,64.56570,     -10.94512
677.797,64.62584,     -10.94928
678.397,64.68588,     -10.95306
678.997,64.74591,     -10.95779
679.597,64.80590,     -10.96221
680.197,64.86588,     -10.96611
680.797,64.92587,     -10.96985
681.397,64.98592,     -10.97376
681.997,65.04604,     -10.97810
682.597,65.10617,     -10.98275
683.197,65.16622,     -10.98715
683.797,65.22621,     -10.99128
684.397,65.28621,     -10.99472
684.997,65.34620,     -10.99902
685.597,65.40630,     -11.00305
686.197,65.46640,     -11.00715
686.797,65.52648,     -11.01110
687.397,65.58648,     -11.01532
687.997,65.64644,     -11.01985
688.597,65.70645,     -11.02485
689.197,65.76654,     -11.02991
689.797,65.82668,     -11.03524
690.397,65.88678,     -11.04108
690.997,65.94687,     -11.04620
691.597,66.00682,     -11.05033
692.197,66.06668,     -11.05404
692.797,66.12659,     -11.05735
693.397,66.18650,     -11.06167
693.997,66.24653,     -11.06650
694.597,66.30658,     -11.07093
695.197,66.36656,     -11.07416
695.797,66.42651,     -11.07788
696.397,66.48644,     -11.08179
696.997,66.54644,     -11.08711
697.597,66.60653,     -11.09324
698.197,66.66664,     -11.10088
698.797,66.72667,     -11.10590
699.397,66.78653,     -11.10751
699.997,66.84632,     -11.10882
700.597,66.90619,     -11.11138
701.197,66.96647,     -11.11469
701.797,67.02704,     -11.12031
702.397,67.08783,     -11.12849
702.997,67.14860,     -11.13539
703.597,67.20884,     -11.14088
704.197,67.26885,     -11.14502
704.797,67.32853,     -11.15227
705.397,67.38845,     -11.15866
705.997,67.44843,     -11.15849
706.597,67.50839,     -11.15890
707.197,67.56824,     -11.16361
707.797,67.62803,     -11.17069
708.397,67.68823,     -11.17776
708.997,67.74870,     -11.18411
709.597,67.80910,     -11.18973
710.197,67.86927,     -11.19332
710.797,67.92891,     -11.19748
711.397,67.98858,     -11.20329
711.997,68.04855,     -11.20921
712.597,68.10864,     -11.21385
713.197,68.16877,     -11.21942
713.797,68.22871,     -11.22401
714.397,68.28853,     -11.22853
714.997,68.34829,     -11.23371
715.597,68.40797,     -11.23844
716.197,68.46763,     -11.24226
716.797,68.52735,     -11.24578
717.397,68.58723,     -11.24927
717.997,68.64718,     -11.25314
718.597,68.70731,     -11.25830
719.197,68.76745,     -11.26416
719.797,68.82764,     -11.27004
720.397,68.88768,     -11.27491
720.997,68.94763,     -11.28038
721.597,69.00750,     -11.28566
722.197,69.06736,     -11.29079
722.797,69.12728,     -11.29593
723.397,69.18728,     -11.30093
723.997,69.24768,     -11.30603
724.597,69.30824,     -11.31128
725.197,69.36879,     -11.31575
725.797,69.42884,     -11.32020
726.397,69.48845,     -11.32475
726.997,69.54792,     -11.32867
727.597,69.60748,     -11.33302
728.197,69.66723,     -11.33791
728.797,69.72723,     -11.34344
729.397,69.78743,     -11.34922
729.997,69.84771,     -11.35512
730.597,69.90794,     -11.36111
731.197,69.96797,     -11.36679
731.797,70.02776,     -11.37112
732.397,70.08752,     -11.37465
732.997,70.14739,     -11.37828
733.597,70.20747,     -11.38286
734.197,70.26762,     -11.38820
734.797,70.32778,     -11.39333
735.397,70.38789,     -11.39905
735.997,70.44792,     -11.40430
736.597,70.50801,     -11.40893
737.197,70.56828,     -11.41499
737.797,70.62863,     -11.42235
738.397,70.68892,     -11.42993
738.997,70.74893,     -11.43608
739.597,70.80862,     -11.43897
740.197,70.86815,     -11.43927
740.797,70.92768,     -11.43940
741.397,70.98751,     -11.44151
741.997,71.04767,     -11.44763
742.597,71.10798,     -11.45415
743.197,71.16837,     -11.46278
743.797,71.22863,     -11.47035
744.397,71.28869,     -11.47606
744.997,71.34853,     -11.48143
745.597,71.40837,     -11.48644
746.197,71.46826,     -11.49106
746.797,71.52831,     -11.49628
747.397,71.58843,     -11.50110
747.997,71.64859,     -11.50582
748.597,71.70883,     -11.51075
749.197,71.76902,     -11.51660
749.797,71.82908,     -11.52298
750.397,71.88904,     -11.52805
750.997,71.94902,     -11.53336
751.597,72.00909,     -11.53879
752.197,72.06919,     -11.54402
752.797,72.12936,     -11.54958
753.397,72.18947,     -11.55519
753.997,72.24957,     -11.56084
754.597,72.30967,     -11.56618
755.197,72.36971,     -11.57067
755.797,72.42975,     -11.57490
756.397,72.48975,     -11.57889
756.997,72.54972,     -11.58420
757.597,72.60967,     -11.59022
758.197,72.66964,     -11.59582
758.797,72.72965,     -11.60105
759.397,72.78972,     -11.60613
759.997,72.84982,     -11.61115
760.597,72.90984,     -11.61648
761.197,72.96983,     -11.62189
761.797,73.02987,     -11.62690
762.397,73.08999,     -11.63142
762.997,73.15010,     -11.63665
763.597,73.21033,     -11.64201
764.197,73.27067,     -11.64747
764.797,73.33102,     -11.65303
765.397,73.39132,     -11.65882
765.997,73.45121,     -11.66449
766.597,73.51108,     -11.66997
767.197,73.57105,     -11.67543
767.797,73.63112,     -11.68050
768.397,73.69129,     -11.68582
768.997,73.75146,     -11.69112
769.597,73.81154,     -11.69662
770.197,73.87161,     -11.70194
770.797,73.93157,     -11.70674
771.397,73.99161,     -11.71185
771.997,74.05162,     -11.71695
772.597,74.11157,     -11.72146
773.197,74.17141,     -11.72545
773.797,74.23132,     -11.73011
774.397,74.29141,     -11.73445
774.997,74.35163,     -11.73878
775.597,74.41178,     -11.74401
776.197,74.47177,     -11.74910
776.797,74.53161,     -11.75369
777.397,74.59143,     -11.75769
777.997,74.65134,     -11.76189
778.597,74.71130,     -11.76610
779.197,74.77137,     -11.77031
779.797,74.83151,     -11.77481
780.397,74.89157,     -11.77991
780.997,74.95163,     -11.78472
781.597,75.01171,     -11.78922
782.197,75.07181,     -11.79463
782.797,75.13186,     -11.79974
783.397,75.19188,     -11.80262
783.997,75.25195,     -11.80493
784.597,75.31202,     -11.80805
785.197,75.37200,     -11.81144
785.797,75.43184,     -11.81473
786.397,75.49174,     -11.81802
786.997,75.55177,     -11.82182
787.597,75.61183,     -11.82613
788.197,75.67190,     -11.83054
788.797,75.73193,     -11.83535
789.397,75.79182,     -11.84001
789.997,75.85165,     -11.84390
790.597,75.91148,     -11.84818
791.197,75.97134,     -11.85435
791.797,76.03128,     -11.86053
792.397,76.09124,     -11.86532
792.997,76.15117,     -11.86883
793.597,76.21107,     -11.87074
794.197,76.27088,     -11.87282
794.797,76.33077,     -11.87688
795.397,76.39072,     -11.88074
795.997,76.45065,     -11.88435
796.597,76.51048,     -11.88765
797.197,76.57020,     -11.89043
797.797,76.62996,     -11.89382
798.397,76.68976,     -11.89701
798.997,76.74965,     -11.90069
799.397,76.78946,     -11.90311