File: data-raw/raw_biomass/HC.csv
#EXPORTTYPE:                 ,DATA SINGLE
#FILE:                       ,HC.ngb-st9
#FORMAT:                     ,NETZSCH5
#FTYPE:                      ,ANSI
#IDENTITY:                   ,Saras
#DECIMAL:                    ,POINT
#SEPARATOR:                  ,COMMA
#MTYPE:                      ,TG
#INSTRUMENT:                 ,NETZSCH TG 209F1 Libra
#PROJECT:                    ,PM
#DATE/TIME:                  ,15/01/2018 12:26:33 PM (UTC+11)
#CORR. FILE:                 ,
#TEMPCAL:                    ,TCALZERO.TCX
#LABORATORY:                 ,Capture Lab
#OPERATOR:                   ,Frank
#REMARK:                     ,
#SAMPLE:                     ,HC
#SAMPLE MASS /mg:            ,15.4650
#MATERIAL:                   ,zeolite
#TYPE OF CRUCIBLE:           ,Al2O3
#SAMPLE CRUCIBLE MASS /mg:   ,169.3205
#REFERENCE CRUCIBLE MASS /mg:,
#M.RANGE /mg:                ,2000
#CORR. CODE:                 ,090
#RANGE:                      ,32°C/10.0(K/min)/900°C
#SEGMENT:                    ,S1/1
#SEG. 1:                     ,32°C/10.0(K/min)/900°C

##Temp./°C,Time/min,Mass loss/mg
 31.53500, 0.00000,-1.657481e-003
 32.13500, 0.17514,-4.004796e-003
 32.73500, 0.25827,-3.337278e-003
 33.33500, 0.33667,-3.564147e-003
 33.93500, 0.40781,-4.455311e-003
 34.53500, 0.47252,-4.950308e-003
 35.13500, 0.53309,-5.246032e-003
 35.73500, 0.59048,-5.197884e-003
 36.33500, 0.64522,-5.352435e-003
 36.93500, 0.69803,-5.825909e-003
 37.53500, 0.74932,-6.187124e-003
 38.13500, 0.79954,-6.581391e-003
 38.73500, 0.84895,-6.791215e-003
 39.33500, 0.89769,-7.130885e-003
 39.93500, 0.94608,-7.438791e-003
 40.53500, 0.99422,-7.858388e-003
 41.13500, 1.04231,-8.017668e-003
 41.73500, 1.09051,-8.353510e-003
 42.33500, 1.13889,-8.814332e-003
 42.93500, 1.18758,-9.303467e-003
 43.53500, 1.23666,-9.754780e-003
 44.13500, 1.28624,-1.042019e-002
 44.73500, 1.33643,-1.119585e-002
 45.33500, 1.38727,-1.211513e-002
 45.93500, 1.43885,-1.270520e-002
 46.53500, 1.49117,-1.348411e-002
 47.13500, 1.54427,-1.437704e-002
 47.73500, 1.59827,-1.542663e-002
 48.33500, 1.65315,-1.647744e-002
 48.93500, 1.70895,-1.770682e-002
 49.53500, 1.76559,-1.919125e-002
 50.13500, 1.82303,-2.078245e-002
 50.73500, 1.88123,-2.291940e-002
 51.33500, 1.94014,-2.510953e-002
 51.93500, 1.99968,-2.759311e-002
 52.53500, 2.05987,-2.982663e-002
 53.13500, 2.12056,-3.181446e-002
 53.73500, 2.18181,-3.341819e-002
 54.33500, 2.24343,-3.488442e-002
 54.93500, 2.30521,-3.636236e-002
 55.53500, 2.36716,-3.818879e-002
 56.13500, 2.42917,-4.084937e-002
 56.73500, 2.49130,-4.438723e-002
 57.33500, 2.55351,-4.746329e-002
 57.93500, 2.61560,-4.937700e-002
 58.53500, 2.67762,-5.120968e-002
 59.13500, 2.73956,-5.387374e-002
 59.73500, 2.80140,-5.742085e-002
 60.33500, 2.86320,-6.097402e-002
 60.93500, 2.92477,-6.459219e-002
 61.53500, 2.98609,-6.749115e-002
 62.13500, 3.04713,-7.041530e-002
 62.73500, 3.10794,-7.375614e-002
 63.33500, 3.16853,-7.729694e-002
 63.93500, 3.22888,-8.047234e-002
 64.53500, 3.28913,-8.414093e-002
 65.13500, 3.34920,-8.778168e-002
 65.73500, 3.40909,-9.177647e-002
 66.33500, 3.46879,-9.557394e-002
 66.93500, 3.52836,-9.968146e-002
 67.53500, 3.58786,      -0.10452
 68.13500, 3.64739,      -0.10924
 68.73500, 3.70685,      -0.11380
 69.33500, 3.76640,      -0.11866
 69.93500, 3.82597,      -0.12388
 70.53500, 3.88555,      -0.12923
 71.13500, 3.94508,      -0.13463
 71.73500, 4.00468,      -0.14011
 72.33500, 4.06428,      -0.14627
 72.93500, 4.12400,      -0.15265
 73.53500, 4.18379,      -0.15966
 74.13500, 4.24357,      -0.16684
 74.73500, 4.30355,      -0.17395
 75.33500, 4.36367,      -0.18086
 75.93500, 4.42383,      -0.18830
 76.53500, 4.48390,      -0.19546
 77.13500, 4.54371,      -0.20295
 77.73500, 4.60337,      -0.21084
 78.33500, 4.66299,      -0.21886
 78.93500, 4.72256,      -0.22690
 79.53500, 4.78213,      -0.23551
 80.13500, 4.84176,      -0.24471
 80.73500, 4.90135,      -0.25430
 81.33500, 4.96090,      -0.26396
 81.93500, 5.02034,      -0.27307
 82.53500, 5.07973,      -0.28265
 83.13500, 5.13906,      -0.29107
 83.73500, 5.19833,      -0.29950
 84.33500, 5.25756,      -0.30841
 84.93500, 5.31677,      -0.31722
 85.53500, 5.37597,      -0.32571
 86.13500, 5.43513,      -0.33453
 86.73500, 5.49439,      -0.34360
 87.33500, 5.55368,      -0.35286
 87.93500, 5.61306,      -0.36145
 88.53500, 5.67245,      -0.36968
 89.13500, 5.73189,      -0.37776
 89.73500, 5.79141,      -0.38617
 90.33500, 5.85102,      -0.39324
 90.93500, 5.91074,      -0.40061
 91.53500, 5.97050,      -0.40870
 92.13500, 6.03023,      -0.41589
 92.73500, 6.08998,      -0.42305
 93.33500, 6.14982,      -0.43010
 93.93500, 6.20971,      -0.43697
 94.53500, 6.26964,      -0.44375
 95.13500, 6.32950,      -0.45021
 95.73500, 6.38938,      -0.45682
 96.33500, 6.44930,      -0.46347
 96.93500, 6.50932,      -0.46974
 97.53500, 6.56937,      -0.47555
 98.13500, 6.62939,      -0.48143
 98.73500, 6.68946,      -0.48693
 99.33500, 6.74954,      -0.49218
 99.93500, 6.80960,      -0.49708
100.535, 6.86964,      -0.50211
101.135, 6.92971,      -0.50761
101.735, 6.98985,      -0.51253
102.335, 7.05007,      -0.51726
102.935, 7.11033,      -0.52167
103.535, 7.17054,      -0.52577
104.135, 7.23071,      -0.52998
104.735, 7.29083,      -0.53368
105.335, 7.35093,      -0.53768
105.935, 7.41106,      -0.54168
106.535, 7.47117,      -0.54558
107.135, 7.53130,      -0.54994
107.735, 7.59141,      -0.55218
108.335, 7.65150,      -0.55479
108.935, 7.71164,      -0.55819
109.535, 7.77183,      -0.56169
110.135, 7.83208,      -0.56550
110.735, 7.89233,      -0.56886
111.335, 7.95246,      -0.57238
111.935, 8.01253,      -0.57535
112.535, 8.07265,      -0.57885
113.135, 8.13282,      -0.58244
113.735, 8.19300,      -0.58594
114.335, 8.25321,      -0.58907
114.935, 8.31334,      -0.59255
115.535, 8.37353,      -0.59583
116.135, 8.43374,      -0.59956
116.735, 8.49402,      -0.60369
117.335, 8.55427,      -0.60772
117.935, 8.61444,      -0.61212
118.535, 8.67461,      -0.61597
119.135, 8.73476,      -0.62135
119.735, 8.79492,      -0.62713
120.335, 8.85508,      -0.63211
120.935, 8.91522,      -0.63730
121.535, 8.97543,      -0.64250
122.135, 9.03561,      -0.64828
122.735, 9.09567,      -0.65421
123.335, 9.15570,      -0.66040
123.935, 9.21565,      -0.66800
124.535, 9.27574,      -0.67587
125.135, 9.33575,      -0.68290
125.735, 9.39575,      -0.68957
126.335, 9.45572,      -0.69684
126.935, 9.51570,      -0.70497
127.535, 9.57567,      -0.71424
128.135, 9.63562,      -0.72335
128.735, 9.69557,      -0.73247
129.335, 9.75556,      -0.74182
129.935, 9.81558,      -0.75121
130.535, 9.87554,      -0.76111
131.135, 9.93553,      -0.77095
131.735, 9.99543,      -0.78116
132.335,10.05527,      -0.79196
132.935,10.11506,      -0.80295
133.535,10.17484,      -0.81355
134.135,10.23466,      -0.82374
134.735,10.29457,      -0.83397
135.335,10.35440,      -0.84501
135.935,10.41415,      -0.85490
136.535,10.47382,      -0.86515
137.135,10.53348,      -0.87527
137.735,10.59312,      -0.88593
138.335,10.65278,      -0.89557
138.935,10.71247,      -0.90528
139.535,10.77220,      -0.91485
140.135,10.83194,      -0.92446
140.735,10.89175,      -0.93295
141.335,10.95149,      -0.94124
141.935,11.01129,      -0.94949
142.535,11.07104,      -0.95757
143.135,11.13080,      -0.96454
143.735,11.19055,      -0.97169
144.335,11.25025,      -0.97854
144.935,11.31000,      -0.98534
145.535,11.36978,      -0.99155
146.135,11.42963,      -0.99795
146.735,11.48949,      -1.00403
147.335,11.54929,      -1.00891
147.935,11.60910,      -1.01329
148.535,11.66894,      -1.01744
149.135,11.72877,      -1.02134
149.735,11.78870,      -1.02483
150.335,11.84863,      -1.02794
150.935,11.90821,      -1.03034
151.535,11.96781,      -1.03309
152.135,12.02752,      -1.03532
152.735,12.08754,      -1.03786
153.335,12.14794,      -1.04040
153.935,12.20837,      -1.04283
154.535,12.26891,      -1.04556
155.135,12.32950,      -1.04815
155.735,12.39004,      -1.05107
156.335,12.45054,      -1.05430
156.935,12.51099,      -1.05749
157.535,12.57141,      -1.06092
158.135,12.63187,      -1.06465
158.735,12.69239,      -1.06834
159.335,12.75296,      -1.07191
159.935,12.81354,      -1.07557
160.535,12.87411,      -1.08029
161.135,12.93457,      -1.08478
161.735,12.99505,      -1.08984
162.335,13.05549,      -1.09548
162.935,13.11600,      -1.10116
163.535,13.17643,      -1.10706
164.135,13.23669,      -1.11350
164.735,13.29680,      -1.12045
165.335,13.35679,      -1.12816
165.935,13.41674,      -1.13577
166.535,13.47668,      -1.14358
167.135,13.53665,      -1.15260
167.735,13.59654,      -1.16228
168.335,13.65631,      -1.17234
168.935,13.71591,      -1.18249
169.535,13.77536,      -1.19322
170.135,13.83473,      -1.20442
170.735,13.89401,      -1.21582
171.335,13.95324,      -1.22801
171.935,14.01245,      -1.24186
172.535,14.07169,      -1.25707
173.135,14.13093,      -1.28527
173.735,14.19014,      -1.29663
174.335,14.24938,      -1.31098
174.935,14.30862,      -1.34137
175.535,14.36789,      -1.36159
176.135,14.42721,      -1.38190
176.735,14.48662,      -1.40454
177.335,14.54614,      -1.42661
177.935,14.60577,      -1.44993
178.535,14.66547,      -1.47326
179.135,14.72521,      -1.49947
179.735,14.78495,      -1.52431
180.335,14.84472,      -1.55006
180.935,14.90451,      -1.57647
181.535,14.96440,      -1.60335
182.135,15.02433,      -1.63128
182.735,15.08427,      -1.66028
183.335,15.14416,      -1.68742
183.935,15.20399,      -1.71770
184.535,15.26384,      -1.74674
185.135,15.32371,      -1.77667
185.735,15.38364,      -1.80790
186.335,15.44358,      -1.83882
186.935,15.50348,      -1.87062
187.535,15.56337,      -1.90229
188.135,15.62326,      -1.93465
188.735,15.68328,      -1.96839
189.335,15.74336,      -2.00085
189.935,15.80352,      -2.03500
190.535,15.86371,      -2.06925
191.135,15.92396,      -2.10386
191.735,15.98418,      -2.13899
192.335,16.04433,      -2.17297
192.935,16.10442,      -2.20824
193.535,16.16450,      -2.24483
194.135,16.22466,      -2.28107
194.735,16.28491,      -2.31583
195.335,16.34510,      -2.35068
195.935,16.40530,      -2.38600
196.535,16.46540,      -2.42143
197.135,16.52546,      -2.45569
197.735,16.58549,      -2.49252
198.335,16.64551,      -2.52677
198.935,16.70553,      -2.56080
199.535,16.76555,      -2.59461
200.135,16.82562,      -2.62814
200.735,16.88570,      -2.66124
201.335,16.94584,      -2.69445
201.935,17.00595,      -2.72637
202.535,17.06603,      -2.76006
203.135,17.12607,      -2.79368
203.735,17.18617,      -2.82551
204.335,17.24630,      -2.85755
204.935,17.30649,      -2.88836
205.535,17.36664,      -2.91811
206.135,17.42679,      -2.94841
206.735,17.48689,      -2.97764
207.335,17.54700,      -3.00558
207.935,17.60710,      -3.03360
208.535,17.66718,      -3.06257
209.135,17.72730,      -3.09139
209.735,17.78748,      -3.11852
210.335,17.84770,      -3.14520
210.935,17.90792,      -3.17137
211.535,17.96816,      -3.19806
212.135,18.02839,      -3.22488
212.735,18.08867,      -3.25089
213.335,18.14890,      -3.27689
213.935,18.20914,      -3.30350
214.535,18.26936,      -3.33028
215.135,18.32954,      -3.35591
215.735,18.38964,      -3.38194
216.335,18.44968,      -3.40779
216.935,18.50969,      -3.43332
217.535,18.56974,      -3.45876
218.135,18.62988,      -3.48463
218.735,18.69000,      -3.51021
219.335,18.75014,      -3.53594
219.935,18.81024,      -3.56124
220.535,18.87038,      -3.58810
221.135,18.93048,      -3.61354
221.735,18.99054,      -3.63887
222.335,19.05058,      -3.66513
222.935,19.11063,      -3.69176
223.535,19.17077,      -3.71819
224.135,19.23086,      -3.74401
224.735,19.29091,      -3.77004
225.335,19.35089,      -3.79590
225.935,19.41081,      -3.82215
226.535,19.47076,      -3.84754
227.135,19.53066,      -3.87267
227.735,19.59062,      -3.89987
228.335,19.65056,      -3.92510
228.935,19.71058,      -3.95178
229.535,19.77062,      -3.97831
230.135,19.83066,      -4.00527
230.735,19.89076,      -4.03151
231.335,19.95079,      -4.05802
231.935,20.01081,      -4.08508
232.535,20.07081,      -4.11262
233.135,20.13079,      -4.13928
233.735,20.19084,      -4.16570
234.335,20.25084,      -4.19335
234.935,20.31086,      -4.22197
235.535,20.37084,      -4.24903
236.135,20.43080,      -4.27529
236.735,20.49075,      -4.30218
237.335,20.55072,      -4.32850
237.935,20.61067,      -4.35557
238.535,20.67065,      -4.38215
239.135,20.73059,      -4.40980
239.735,20.79060,      -4.43580
240.335,20.85059,      -4.46124
240.935,20.91062,      -4.48709
241.535,20.97060,      -4.51272
242.135,21.03057,      -4.53916
242.735,21.09051,      -4.56511
243.335,21.15044,      -4.59116
243.935,21.21041,      -4.61666
244.535,21.27036,      -4.64265
245.135,21.33030,      -4.66855
245.735,21.39024,      -4.69504
246.335,21.45028,      -4.72201
246.935,21.51035,      -4.74791
247.535,21.57037,      -4.77246
248.135,21.63035,      -4.79771
248.735,21.69028,      -4.82448
249.335,21.75028,      -4.84991
249.935,21.81026,      -4.87455
250.535,21.87029,      -4.89920
251.135,21.93030,      -4.92435
251.735,21.99029,      -4.94860
252.335,22.05026,      -4.97325
252.935,22.11023,      -4.99568
253.535,22.17024,      -5.02080
254.135,22.23034,      -5.04651
254.735,22.29053,      -5.07173
255.335,22.35073,      -5.09580
255.935,22.41089,      -5.12024
256.535,22.47092,      -5.14462
257.135,22.53086,      -5.16740
257.735,22.59070,      -5.19027
258.335,22.65047,      -5.21418
258.935,22.71023,      -5.23692
259.535,22.77012,      -5.26144
260.135,22.83016,      -5.28579
260.735,22.89030,      -5.31126
261.335,22.95044,      -5.33490
261.935,23.01051,      -5.35780
262.535,23.07050,      -5.38067
263.135,23.13039,      -5.40340
263.735,23.19029,      -5.42618
264.335,23.25022,      -5.45016
264.935,23.31025,      -5.47342
265.535,23.37034,      -5.49663
266.135,23.43033,      -5.52097
266.735,23.49026,      -5.54386
267.335,23.55013,      -5.56618
267.935,23.61004,      -5.58621
268.535,23.66999,      -5.61073
269.135,23.72999,      -5.63237
269.735,23.79002,      -5.65313
270.335,23.85010,      -5.67734
270.935,23.91023,      -5.69996
271.535,23.97034,      -5.72283
272.135,24.03042,      -5.74305
272.735,24.09036,      -5.76544
273.335,24.15029,      -5.78735
273.935,24.21013,      -5.80996
274.535,24.27002,      -5.83246
275.135,24.32992,      -5.85706
275.735,24.38996,      -5.87871
276.335,24.45011,      -5.90239
276.935,24.51023,      -5.92395
277.535,24.57043,      -5.94760
278.135,24.63058,      -5.97133
278.735,24.69074,      -5.99505
279.335,24.75081,      -6.01665
279.935,24.81083,      -6.03731
280.535,24.87083,      -6.05910
281.135,24.93083,      -6.08212
281.735,24.99086,      -6.10630
282.335,25.05084,      -6.13157
282.935,25.11080,      -6.15380
283.535,25.17076,      -6.17656
284.135,25.23066,      -6.19798
284.735,25.29061,      -6.22092
285.335,25.35052,      -6.24750
285.935,25.41045,      -6.27244
286.535,25.47049,      -6.29618
287.135,25.53054,      -6.32221
287.735,25.59061,      -6.34773
288.335,25.65063,      -6.37256
288.935,25.71059,      -6.39741
289.535,25.77055,      -6.42208
290.135,25.83060,      -6.44688
290.735,25.89072,      -6.47134
291.335,25.95086,      -6.49712
291.935,26.01097,      -6.52232
292.535,26.07100,      -6.54843
293.135,26.13101,      -6.57591
293.735,26.19103,      -6.60406
294.335,26.25105,      -6.63580
294.935,26.31119,      -6.66791
295.535,26.37134,      -6.70083
296.135,26.43153,      -6.73301
296.735,26.49165,      -6.76078
297.335,26.55166,      -6.79042
297.935,26.61160,      -6.81734
298.535,26.67146,      -6.83823
299.135,26.73140,      -6.87059
299.735,26.79138,      -6.90214
300.335,26.85133,      -6.93585
300.935,26.91134,      -6.97551
301.535,26.97129,      -7.00892
302.135,27.03122,      -7.04226
302.735,27.09107,      -7.07097
303.335,27.15089,      -7.09375
303.935,27.21071,      -7.12647
304.535,27.27063,      -7.17367
305.135,27.33066,      -7.21067
305.735,27.39075,      -7.23757
306.335,27.45086,      -7.27468
306.935,27.51096,      -7.30230
307.535,27.57107,      -7.30823
308.135,27.63120,      -7.79959
308.735,27.69139,      -8.16043
309.335,27.75161,      -8.56097
309.935,27.81192,      -8.38099
310.535,27.87228,      -8.57519
311.135,27.93261,      -8.74146
311.735,27.99280,      -7.85505
312.335,28.05299,      -5.14165
312.935,28.11321,      -2.26043
313.535,28.17341,       0.42857
314.135,28.23355,       2.53066
314.735,28.29356,       4.17984
315.335,28.35344,       5.93339
315.935,28.41322,       8.11103
316.535,28.47297,       9.92425
317.135,28.53281,      12.91786
317.735,28.59269,      14.44387
318.335,28.65268,      16.04937
318.935,28.71273,      19.15371
319.535,28.77274,      22.74311
320.135,28.83276,      25.93303
320.735,28.89271,      28.62073
321.335,28.95264,      23.60874
321.935,29.01258,      22.25731
322.535,29.07249,      26.44493
323.135,29.13239,      29.02408
323.735,29.19227,      32.50403
324.335,29.25218,      35.47026
324.935,29.31215,      37.60967
325.535,29.37222,      37.05406
326.135,29.43230,      38.71063
326.735,29.49242,      42.37628
327.335,29.55262,      45.54079
327.935,29.61289,      48.60997
328.535,29.67320,      51.16969
329.135,29.73347,      54.45830
329.735,29.79360,      52.68525
330.335,29.85358,      54.76015
330.935,29.91348,      58.69437
331.535,29.97330,      59.77368
332.135,30.03315,      58.38963
332.735,30.09293,      60.25031
333.335,30.15269,      61.80653
333.935,30.21248,      61.63680
334.535,30.27243,      63.66730
335.135,30.33246,      66.61301
335.735,30.39255,      70.33362
336.335,30.45262,      73.23097
336.935,30.51266,      75.61188
337.535,30.57274,      76.81999
338.135,30.63283,      74.59314
338.735,30.69285,      73.44000
339.335,30.75285,      73.25597
339.935,30.81286,      73.15540
340.535,30.87290,      72.66344
341.135,30.93299,      74.23886
341.735,30.99311,      75.61753
342.335,31.05325,      75.23397
342.935,31.11343,      75.09834
343.535,31.17357,      76.01343
344.135,31.23365,      78.25680
344.735,31.29368,      78.08534
345.335,31.35371,      81.89669
345.935,31.41380,      84.62513
346.535,31.47397,      88.19157
347.135,31.53413,      91.97757
347.735,31.59430,      94.41565
348.335,31.65437,      95.65135
348.935,31.71436,      90.36951
349.535,31.77428,      87.93666
350.135,31.83411,      92.72583
350.735,31.89394,      97.70550
351.335,31.95388,     102.184
351.935,32.01394,     107.317
352.535,32.07409,     108.841
353.135,32.13421,     110.491
353.735,32.19432,     114.826
354.335,32.25444,     117.473
354.935,32.31458,     120.638
355.535,32.37471,     122.837
356.135,32.43485,     122.165
356.735,32.49493,     124.194
357.335,32.55497,     125.309
357.935,32.61500,     123.076
358.535,32.67508,     122.548
359.135,32.73517,     128.413
359.735,32.79519,     133.542
360.335,32.85517,     133.357
360.935,32.91508,     124.832
361.535,32.97508,     128.844
362.135,33.03518,     132.427
362.735,33.09541,     133.211
363.335,33.15570,     135.773
363.935,33.21596,     139.604
364.535,33.27618,     134.821
365.135,33.33630,     112.438
365.735,33.39629,     110.86
366.335,33.45607,      14.17575
366.935,33.51581,       8.68005
367.535,33.57543,       6.45882
368.135,33.63508,       3.44981
368.735,33.69473,      -4.62175
369.335,33.75448,      -4.35851
369.935,33.81430,      -4.73179
370.535,33.87417,      -5.57804
371.135,33.93407,      -1.78603
371.735,33.99402,       2.09112
372.335,34.05402,       6.06503
372.935,34.11409,       9.52129
373.535,34.17422,      13.45214
374.135,34.23439,      18.47102
374.735,34.29462,      23.20839
375.335,34.35479,      29.68182
375.935,34.41493,      38.91321
376.535,34.47501,      46.17666
377.135,34.53507,      52.88705
377.735,34.59518,      60.35104
378.335,34.65539,      66.88658
378.935,34.71563,      72.33632
379.535,34.77587,      74.50003
380.135,34.83599,      81.95351
380.735,34.89600,      89.55113
381.335,34.95598,      93.05022
381.935,35.01604,      92.66888
382.535,35.07620,      95.48770
383.135,35.13642,      93.89872
383.735,35.19669,      94.31155
384.335,35.25689,      97.36452
384.935,35.31701,     103.977
385.535,35.37704,     110.204
386.135,35.43704,     114.094
386.735,35.49712,     108.89
387.335,35.55735,      63.80669
387.935,35.61761,      52.21185
388.535,35.67786,      52.46352
389.135,35.73804,      56.53611
389.735,35.79811,      61.89088
390.335,35.85824,      52.29370
390.935,35.91844,      59.65235
391.535,35.97866,      42.25478
392.135,36.03886,      36.94719
392.735,36.09907,      41.22014
393.335,36.15925,      24.00348
393.935,36.21944,      23.29904
394.535,36.27958,      19.82648
395.135,36.33973,      13.27247
395.735,36.39997,     -12.66215
396.335,36.46016,     -13.39893
396.935,36.52029,     -14.38539
397.535,36.58040,     -12.46378
398.135,36.64052,     -11.98128
398.735,36.70058,      -9.19223
399.335,36.76063,     -16.10767
399.935,36.82059,     -15.29226
400.535,36.88059,     -12.75714
401.135,36.94066,      -8.95506
401.735,37.00081,      -9.81542
402.335,37.06103,     -11.38642
402.935,37.12120,     -21.31466
403.535,37.18132,     -23.41873
404.135,37.24140,     -21.62542
404.735,37.30143,     -15.56146
405.335,37.36153,      -9.51145
405.935,37.42167,      -4.95611
406.535,37.48187,     -10.66282
407.135,37.54199,     -16.47732
407.735,37.60191,     -23.78019
408.335,37.66166,     -29.41772
408.935,37.72133,     -37.08283
409.535,37.78105,     -43.90632
410.135,37.84076,     -51.87702
410.735,37.90048,     -58.22028
411.335,37.96013,     -63.08469
411.935,38.01978,     -70.06661
412.535,38.07930,     -78.39564
413.135,38.13885,     -89.79135
413.735,38.19854,     -99.67234
414.335,38.25844,    -108.56
414.935,38.31848,    -117.839
415.535,38.37861,    -126.527
416.135,38.43879,    -136.89
416.735,38.49898,    -145.521
417.335,38.55910,    -154.548
417.935,38.61909,    -163.829
418.535,38.67895,    -172.224
419.135,38.73877,    -177.587
419.735,38.79862,    -185.596
420.335,38.85860,    -193.905
420.935,38.91865,    -202.133
421.535,38.97875,    -199.403
422.135,39.03879,    -211.398
422.735,39.09882,    -218.965
423.335,39.15884,    -229.559
423.935,39.21893,    -242.857
424.535,39.27909,    -249.938
425.135,39.33931,    -266.437
425.735,39.39963,    -275.855
426.335,39.45993,    -284.862
426.935,39.52018,    -300.474
427.535,39.58033,    -314.269
428.135,39.64032,    -323.497
428.735,39.70029,    -332.727
429.335,39.76017,    -346.448
429.935,39.82023,    -361.628
430.535,39.88110,    -372.698
431.135,39.94241,    -142.831
431.735,40.00388,    -142.74
432.335,40.06476,    -147.186
432.935,40.12514,    -150.353
433.535,40.18522,    -148.214
434.135,40.24515,    -149.604
434.735,40.30487,    -151.699
435.335,40.36454,    -154.31
435.935,40.42427,    -162.082
436.535,40.48403,    -159.935
437.135,40.54382,    -148.126
437.735,40.60353,    -155.757
438.335,40.66302,    -150.528
438.935,40.72262,    -159.344
439.535,40.78266,    -158.197
440.135,40.84321,    -150.533
440.735,40.90407,    -151.568
441.335,40.96448,    -154.022
441.935,41.02454,    -166.662
442.535,41.08477,    -168.842
443.135,41.14546,    -161.806
443.735,41.20583,    -154.364
444.335,41.26521,    -167.612
444.935,41.32393,    -167.219
445.535,41.38268,    -166.244
446.135,41.44244,    -168.463
446.735,41.50295,    -165.227
447.335,41.56368,    -162.591
447.935,41.62418,    -161.557
448.535,41.68425,    -168.209
449.135,41.74414,    -172.475
449.735,41.80446,    -178.252
450.335,41.86502,    -171.827
450.935,41.92534,    -172.55
451.535,41.98500,    -177.976
452.135,42.04427,    -179.537
452.735,42.10380,    -179.554
453.335,42.16389,    -180.268
453.935,42.22436,    -179.612
454.535,42.28470,    -181.788
455.135,42.34501,    -182.399
455.735,42.40545,    -182.252
456.335,42.46603,    -177.906
456.935,42.52629,    -177.533
457.535,42.58589,    -183.455
458.135,42.64504,    -180.872
458.735,42.70430,    -180.412
459.335,42.76405,    -182.586
459.935,42.82418,    -181.62
460.535,42.88418,    -184.364
461.135,42.94403,    -151.692
461.735,43.00379,    -157.944
462.335,43.06353,    -149.056
462.935,43.12333,    -150.922
463.535,43.18304,    -153.494
464.135,43.24293,    -146.126
464.735,43.30305,    -146.357
465.335,43.36334,    -151.864
465.935,43.42346,    -155.833
466.535,43.48351,    -161.058
467.135,43.54343,    -155.764
467.735,43.60320,    -160.246
468.335,43.66300,    -156.333
468.935,43.72299,    -164.663
469.535,43.78329,    -158.816
470.135,43.84337,    -153.644
470.735,43.90309,    -167.269
471.335,43.96217,    -166.12
471.935,44.02115,    -173.65
472.535,44.08039,    -175.076
473.135,44.13988,    -170.947
473.735,44.19983,    -177.853
474.335,44.25990,    -178.497
474.935,44.31997,    -181.243
475.535,44.37993,    -182.744
476.135,44.43975,    -182.77
476.735,44.49965,    -184.381
477.335,44.55959,    -184.774
477.935,44.61941,    -178.661
478.535,44.67909,    -181.237
479.135,44.73872,    -180.452
479.735,44.79850,    -182.999
480.335,44.85855,    -183.853
480.935,44.91872,    -184.316
481.535,44.97912,    -184.779
482.135,45.03956,    -184.77
482.735,45.09991,    -184.793
483.335,45.16022,    -184.792
483.935,45.22070,    -184.208
484.535,45.28170,    -183.956
485.135,45.34338,    -185.975
485.735,45.40555,    -191.939
486.335,45.46765,    -182.616
486.935,45.52925,    -184.794
487.535,45.59018,    -189.044
488.135,45.65066,    -203.85
488.735,45.71083,    -208.083
489.335,45.77090,    -212.278
489.935,45.83078,    -187.879
490.535,45.89063,    -194.072
491.135,45.95057,    -203.408
491.735,46.01067,    -205.671
492.335,46.07087,    -170.946
492.935,46.13094,    -184.491
493.535,46.19079,    -190.114
494.135,46.25043,    -194.89
494.735,46.30996,    -193.229
495.335,46.36950,    -191.684
495.935,46.42911,    -179.916
496.535,46.48877,    -184.011
497.135,46.54845,    -187.399
497.735,46.60811,    -193.023
498.335,46.66781,    -174.789
498.935,46.72766,    -182.809
499.535,46.78758,    -191.165
500.135,46.84753,    -199.578
500.735,46.90751,    -205.035
501.335,46.96751,    -208.18
501.935,47.02745,    -211.175
502.535,47.08738,    -208.705
503.135,47.14718,    -209.009
503.735,47.20701,    -207.672
504.335,47.26680,    -207.728
504.935,47.32661,    -209.512
505.535,47.38638,    -207.843
506.135,47.44610,    -203.593
506.735,47.50577,    -202.767
507.335,47.56540,    -201.819
507.935,47.62507,    -199.078
508.535,47.68485,    -197.667
509.135,47.74479,    -198.074
509.735,47.80481,    -198.713
510.335,47.86478,    -200.158
510.935,47.92469,    -199.604
511.535,47.98448,    -195.556
512.135,48.04423,    -185.722
512.735,48.10402,    -184.946
513.335,48.16390,    -182.216
513.935,48.22390,    -181.649
514.535,48.28382,    -182.116
515.135,48.34369,    -180.652
515.735,48.40356,    -178.889
516.335,48.46343,    -179.66
516.935,48.52339,    -176.476
517.535,48.58327,    -175.35
518.135,48.64313,    -172.425
518.735,48.70316,    -174.933
519.335,48.76333,    -173.222
519.935,48.82359,    -172.588
520.535,48.88374,    -176.866
521.135,48.94382,    -176.205
521.735,49.00391,    -173.862
522.335,49.06415,    -170.933
522.935,49.12453,    -166.175
523.535,49.18494,    -162.962
524.135,49.24541,    -159.524
524.735,49.30584,    -156.759
525.335,49.36632,    -154.044
525.935,49.42670,    -152.407
526.535,49.48691,    -149.272
527.135,49.54697,    -147.14
527.735,49.60702,    -141.965
528.335,49.66714,    -139.851
528.935,49.72729,    -137.768
529.535,49.78743,    -134.598
530.135,49.84758,    -132.081
530.735,49.90779,    -129.524
531.335,49.96797,    -127.512
531.935,50.02810,    -126.402
532.535,50.08813,    -124.524
533.135,50.14805,    -122.444
533.735,50.20800,    -121.588
534.335,50.26798,    -118.805
534.935,50.32817,    -116.707
535.535,50.38844,    -113.005
536.135,50.44882,    -112.62
536.735,50.50912,    -109.782
537.335,50.56930,    -107.516
537.935,50.62931,    -105.169
538.535,50.68922,    -103.029
539.135,50.74911,    -101.133
539.735,50.80892,     -99.51035
540.335,50.86870,     -97.88242
540.935,50.92847,     -96.27938
541.535,50.98833,     -95.28065
542.135,51.04835,     -93.89398
542.735,51.10855,     -92.63016
543.335,51.16878,     -91.47642
543.935,51.22889,     -90.87638
544.535,51.28889,     -91.44160
545.135,51.34879,     -90.27919
545.735,51.40875,     -89.63130
546.335,51.46872,     -88.62358
546.935,51.52866,     -87.92874
547.535,51.58861,     -87.89535
548.135,51.64863,     -87.35283
548.735,51.70873,     -82.57375
549.335,51.76881,     -81.80719
549.935,51.82880,     -80.27292
550.535,51.88872,     -79.41257
551.135,51.94859,     -78.48110
551.735,52.00842,     -77.26421
552.335,52.06830,     -75.65121
552.935,52.12824,     -74.11992
553.535,52.18828,     -72.59302
554.135,52.24843,     -72.38817
554.735,52.30857,     -70.13636
555.335,52.36869,     -68.65685
555.935,52.42874,     -69.08575
556.535,52.48874,     -69.62286
557.135,52.54874,     -68.85571
557.735,52.60877,     -69.38260
558.335,52.66874,     -69.21038
558.935,52.72874,     -68.54872
559.535,52.78877,     -69.18800
560.135,52.84885,     -68.81123
560.735,52.90895,     -67.94681
561.335,52.96903,     -67.83832
561.935,53.02916,     -67.65530
562.535,53.08924,     -67.85660
563.135,53.14925,     -68.11285
563.735,53.20916,     -68.12953
564.335,53.26901,     -67.80722
564.935,53.32894,     -68.17685
565.535,53.38892,     -67.86761
566.135,53.44888,     -64.60466
566.735,53.50881,     -64.62419
567.335,53.56865,     -64.05769
567.935,53.62855,     -63.50314
568.535,53.68852,     -63.13929
569.135,53.74853,     -55.43877
569.735,53.80855,     -55.50625
570.335,53.86842,     -56.03317
570.935,53.92825,     -55.92492
571.535,53.98810,     -56.28639
572.135,54.04810,     -56.43401
572.735,54.10818,     -56.90195
573.335,54.16827,     -56.07868
573.935,54.22839,     -56.66764
574.535,54.28848,     -56.92586
575.135,54.34856,     -57.21577
575.735,54.40865,     -58.15044
576.335,54.46878,     -58.35457
576.935,54.52898,     -57.24105
577.535,54.58914,     -56.67111
578.135,54.64918,     -57.08772
578.735,54.70924,     -57.32844
579.335,54.76937,     -58.17907
579.935,54.82961,     -58.77142
580.535,54.88975,     -58.60452
581.135,54.94967,     -53.72111
581.735,55.00947,     -52.56557
582.335,55.06920,     -52.43527
582.935,55.12891,     -52.31737
583.535,55.18870,     -50.50427
584.135,55.24860,     -50.78210
584.735,55.30863,     -50.98766
585.335,55.36874,     -52.53029
585.935,55.42886,     -52.49212
586.535,55.48889,     -52.71734
587.135,55.54884,     -52.80897
587.735,55.60866,     -52.58029
588.335,55.66851,     -52.96025
588.935,55.72845,     -53.35293
589.535,55.78857,     -54.09585
590.135,55.84889,     -55.08500
590.735,55.90930,     -54.33615
591.335,55.96956,     -54.89646
591.935,56.02967,     -54.68937
592.535,56.08955,     -54.65101
593.135,56.14925,     -54.67858
593.735,56.20901,     -55.51510
594.335,56.26880,     -55.80301
594.935,56.32872,     -56.36575
595.535,56.38860,     -56.90700
596.135,56.44850,     -57.01158
596.735,56.50841,     -57.36795
597.335,56.56843,     -57.76530
597.935,56.62854,     -58.00086
598.535,56.68867,     -58.35053
599.135,56.74883,     -59.07676
599.735,56.80895,     -59.37497
600.335,56.86900,     -59.73947
600.935,56.92901,     -60.21307
601.535,56.98896,     -60.22643
602.135,57.04888,     -60.04101
602.735,57.10873,     -60.56537
603.335,57.16854,     -59.95066
603.935,57.22843,     -60.34370
604.535,57.28838,     -59.19732
605.135,57.34860,     -58.13477
605.735,57.40894,     -56.03062
606.335,57.46934,     -55.83266
606.935,57.52966,     -55.15658
607.535,57.58984,     -54.17509
608.135,57.64982,     -54.09800
608.735,57.70976,     -54.07568
609.335,57.76969,     -54.08137
609.935,57.82972,     -53.10736
610.535,57.88985,     -52.45270
611.135,57.95004,     -52.43149
611.735,58.01028,     -52.40779
612.335,58.07052,     -52.56839
612.935,58.13078,     -52.48879
613.535,58.19092,     -52.67496
614.135,58.25097,     -50.74128
614.735,58.31098,     -51.02206
615.335,58.37096,     -51.05263
615.935,58.43107,     -50.59562
616.535,58.49125,     -50.71299
617.135,58.55152,     -50.19216
617.735,58.61169,     -50.45965
618.335,58.67175,     -50.80775
618.935,58.73163,     -51.04262
619.535,58.79141,     -51.30837
620.135,58.85120,     -51.47017
620.735,58.91104,     -52.01076
621.335,58.97103,     -52.06924
621.935,59.03115,     -52.06758
622.535,59.09134,     -52.45277
623.135,59.15156,     -52.61127
623.735,59.21169,     -52.57079
624.335,59.27175,     -53.20252
624.935,59.33161,     -53.55692
625.535,59.39151,     -54.02674
626.135,59.45142,     -53.79668
626.735,59.51144,     -54.25108
627.335,59.57137,     -54.71741
627.935,59.63145,     -55.00352
628.535,59.69157,     -55.58786
629.135,59.75172,     -56.23661
629.735,59.81186,     -56.22783
630.335,59.87192,     -56.29985
630.935,59.93187,     -57.01038
631.535,59.99173,     -56.87891
632.135,60.05154,     -57.22151
632.735,60.11145,     -57.86865
633.335,60.17156,     -58.21333
633.935,60.23180,     -58.65714
634.535,60.29200,     -58.82127
635.135,60.35207,     -59.49250
635.735,60.41208,     -60.07000
636.335,60.47205,     -59.74447
636.935,60.53203,     -60.26011
637.535,60.59195,     -59.96454
638.135,60.65192,     -60.09249
638.735,60.71188,     -60.29767
639.335,60.77189,     -60.47287
639.935,60.83189,     -61.12996
640.535,60.89188,     -61.70579
641.135,60.95179,     -62.10112
641.735,61.01170,     -62.14417
642.335,61.07159,     -62.64314
642.935,61.13152,     -63.42637
643.535,61.19150,     -63.54882
644.135,61.25154,     -64.10567
644.735,61.31172,     -64.62161
645.335,61.37197,     -64.00389
645.935,61.43221,     -63.47123
646.535,61.49235,     -63.06445
647.135,61.55244,     -63.84033
647.735,61.61245,     -64.19658
648.335,61.67245,     -63.30295
648.935,61.73243,     -63.44709
649.535,61.79241,     -63.53851
650.135,61.85247,     -64.15598
650.735,61.91257,     -64.66527
651.335,61.97269,     -65.10842
651.935,62.03273,     -65.53283
652.535,62.09276,     -66.23407
653.135,62.15277,     -66.69146
653.735,62.21283,     -67.34668
654.335,62.27289,     -66.53365
654.935,62.33296,     -65.86603
655.535,62.39302,     -65.24122
656.135,62.45311,     -66.29103
656.735,62.51322,     -66.92457
657.335,62.57333,     -67.63942
657.935,62.63346,     -68.59996
658.535,62.69359,     -67.66107
659.135,62.75369,     -65.99888
659.735,62.81374,     -67.34193
660.335,62.87368,     -66.91520
660.935,62.93358,     -67.90341
661.535,62.99350,     -68.52169
662.135,63.05355,     -68.16097
662.735,63.11365,     -68.58842
663.335,63.17387,     -69.33371
663.935,63.23408,     -66.24376
664.535,63.29423,     -66.49282
665.135,63.35425,     -67.50276
665.735,63.41415,     -67.28270
666.335,63.47398,     -67.75843
666.935,63.53386,     -63.58466
667.535,63.59379,     -64.89477
668.135,63.65386,     -65.47287
668.735,63.71391,     -64.23257
669.335,63.77401,     -64.43359
669.935,63.83413,     -65.49880
670.535,63.89428,     -65.53452
671.135,63.95447,     -65.63156
671.735,64.01464,     -66.05254
672.335,64.07476,     -63.76304
672.935,64.13483,     -62.25403
673.535,64.19485,     -61.87233
674.135,64.25483,     -60.53869
674.735,64.31487,     -60.07505
675.335,64.37492,     -61.61488
675.935,64.43505,     -61.20390
676.535,64.49517,     -62.90682
677.135,64.55528,     -59.42320
677.735,64.61537,     -57.49755
678.335,64.67546,     -56.88134
678.935,64.73556,     -55.83406
679.535,64.79567,     -51.99790
680.135,64.85575,     -50.66394
680.735,64.91578,     -53.14918
681.335,64.97571,     -55.69257
681.935,65.03568,     -55.44823
682.535,65.09575,     -50.69754
683.135,65.15596,     -49.77817
683.735,65.21626,     -50.66843
684.335,65.27654,     -49.13403
684.935,65.33676,     -44.38657
685.535,65.39693,     -42.06695
686.135,65.45713,     -41.51468
686.735,65.51727,     -42.50727
687.335,65.57733,     -39.36561
687.935,65.63726,     -37.99343
688.535,65.69718,     -35.51707
689.135,65.75717,     -33.79042
689.735,65.81731,     -35.42439
690.335,65.87757,     -33.82234
690.935,65.93789,     -34.66284
691.535,65.99804,     -35.83229
692.135,66.05806,     -33.00433
692.735,66.11799,     -32.60504
693.335,66.17795,     -30.89816
693.935,66.23801,     -32.15542
694.535,66.29808,     -30.05645
695.135,66.35816,     -29.66339
695.735,66.41824,     -29.22134
696.335,66.47844,     -28.04607
696.935,66.53876,     -29.22385
697.535,66.59912,     -30.21876
698.135,66.65944,     -28.98586
698.735,66.71974,     -29.29022
699.335,66.77991,     -27.42810
699.935,66.83999,     -26.37847
700.535,66.90004,     -26.08584
701.135,66.96018,     -25.08431
701.735,67.02038,     -25.76368
702.335,67.08057,     -26.52667
702.935,67.14073,     -27.39019
703.535,67.20084,     -27.26951
704.135,67.26098,     -25.50716
704.735,67.32113,     -24.73975
705.335,67.38135,     -24.62219
705.935,67.44161,     -22.02107
706.535,67.50185,     -22.91022
707.135,67.56201,     -24.20656
707.735,67.62204,     -23.65634
708.335,67.68200,     -24.12888
708.935,67.74200,     -21.13356
709.535,67.80203,     -21.70969
710.135,67.86215,     -22.24132
710.735,67.92232,     -22.64426
711.335,67.98246,     -17.38849
711.935,68.04261,     -17.99258
712.535,68.10266,     -18.00013
713.135,68.16266,     -16.12918
713.735,68.22260,     -16.46798
714.335,68.28250,     -17.22862
714.935,68.34242,     -17.39415
715.535,68.40245,     -17.65171
716.135,68.46256,     -17.81191
716.735,68.52276,     -16.03425
717.335,68.58293,     -16.43928
717.935,68.64305,     -16.79001
718.535,68.70304,     -17.17182
719.135,68.76302,     -17.06078
719.735,68.82294,     -17.37544
720.335,68.88290,     -17.82412
720.935,68.94287,     -17.96558
721.535,69.00282,     -18.34109
722.135,69.06283,     -18.70214
722.735,69.12278,     -18.95006
723.335,69.18271,     -18.03048
723.935,69.24264,     -18.45307
724.535,69.30260,     -19.06911
725.135,69.36264,     -19.44897
725.735,69.42273,     -17.20736
726.335,69.48284,     -17.94194
726.935,69.54290,     -18.31172
727.535,69.60287,     -18.35548
728.135,69.66275,     -17.29483
728.735,69.72270,     -17.61442
729.335,69.78268,     -16.48961
729.935,69.84276,     -17.07643
730.535,69.90272,     -15.30805
731.135,69.96265,     -15.31826
731.735,70.02257,     -15.32787
732.335,70.08256,     -15.36622
732.935,70.14253,     -15.42275
733.535,70.20242,     -15.50416
734.135,70.26221,     -15.60344
734.735,70.32207,     -15.72377
735.335,70.38200,     -15.97359
735.935,70.44200,     -16.08914
736.535,70.50200,     -15.44737
737.135,70.56195,     -15.70322
737.735,70.62193,     -15.28834
738.335,70.68183,     -15.28935
738.935,70.74174,     -15.28957
739.535,70.80158,     -15.28929
740.135,70.86147,     -15.28920
740.735,70.92144,     -15.28942
741.335,70.98136,     -15.28974
741.935,71.04117,     -15.29016
742.535,71.10083,     -15.29087
743.135,71.16047,     -15.29146
743.735,71.22016,     -15.29252
744.335,71.28001,     -15.29333
744.935,71.33997,     -15.29414
745.535,71.40003,     -15.29476
746.135,71.46008,     -15.29579
746.735,71.51999,     -15.29669
747.335,71.57980,     -15.29761
747.935,71.63956,     -15.29850
748.535,71.69934,     -15.29970
749.135,71.75923,     -15.30041
749.735,71.81913,     -15.30149
750.335,71.87895,     -15.30272
750.935,71.93868,     -15.30411
751.535,71.99839,     -15.30542
752.135,72.05813,     -15.30672
752.735,72.11797,     -15.30782
753.335,72.17782,     -15.30883
753.935,72.23767,     -15.30994
754.535,72.29751,     -15.31114
755.135,72.35736,     -15.31214
755.735,72.41724,     -15.31333
756.335,72.47712,     -15.31383
756.935,72.53697,     -15.31424
757.535,72.59682,     -15.31505
758.135,72.65667,     -15.31576
758.735,72.71651,     -15.31657
759.335,72.77633,     -15.31749
759.935,72.83616,     -15.31860
760.535,72.89516,     -15.32001
761.135,72.95067,     -15.32163
761.735,73.00373,     -15.32266
762.335,73.05563,     -15.32313
762.935,73.10867,     -15.32346
763.535,73.16566,     -15.32378
764.135,73.22679,     -15.32425
764.735,73.29028,     -15.32461
765.335,73.35353,     -15.32513
765.935,73.41486,     -15.32563
766.535,73.47439,     -15.32592
767.135,73.53314,     -15.32621
767.735,73.59206,     -15.32672
768.335,73.65196,     -15.32734
768.935,73.71306,     -15.32825
769.535,73.77490,     -15.32966
770.135,73.83677,     -15.33128
770.735,73.89809,     -15.33227
771.335,73.95864,     -15.33299
771.935,74.01870,     -15.33349
772.535,74.07868,     -15.33419
773.135,74.13891,     -15.33509
773.735,74.19939,     -15.33570
774.335,74.25996,     -15.33651
774.935,74.32044,     -15.33723
775.535,74.38068,     -15.33773
776.135,74.44073,     -15.33842
776.735,74.50055,     -15.33882
777.335,74.56025,     -15.33942
777.935,74.62003,     -15.34002
778.535,74.67992,     -15.34063
779.135,74.73997,     -15.34153
779.735,74.80002,     -15.34234
780.335,74.85999,     -15.34294
780.935,74.91983,     -15.34334
781.535,74.97958,     -15.34373
782.135,75.03923,     -15.34394
782.735,75.09888,     -15.34394
783.335,75.15860,     -15.34404
783.935,75.21832,     -15.34424
784.535,75.27802,     -15.34464
785.135,75.33770,     -15.34505
785.735,75.39732,     -15.34566
786.335,75.45699,     -15.34604
786.935,75.51666,     -15.34653
787.535,75.57642,     -15.34772
788.135,75.63622,     -15.34902
788.735,75.69604,     -15.35072
789.335,75.75589,     -15.35111
789.935,75.81576,     -15.35074
790.535,75.87572,     -15.35022
791.135,75.93574,     -15.34992
791.735,75.99579,     -15.34992
792.335,76.05585,     -15.35060
792.935,76.11567,     -15.35180
793.535,76.17527,     -15.34976
794.135,76.23450,     -15.32921
794.735,76.29357,     -15.37033
795.335,76.35255,     -15.47239
795.935,76.41152,     -15.19075
796.535,76.47055,     -14.96616
797.135,76.52963,     -15.07860
797.735,76.58874,     -14.79102
798.335,76.64798,     -15.09408
798.935,76.70735,     -14.85637
799.535,76.76690,     -14.69382
800.135,76.82657,     -14.90244
800.735,76.88645,     -14.94184
801.335,76.94659,     -14.87274
801.935,77.00715,     -15.18205
802.535,77.06806,     -14.86046
803.135,77.12922,     -14.80157
803.735,77.19049,     -14.90305
804.335,77.25172,     -14.86508
804.935,77.31286,     -14.99186
805.535,77.37390,     -14.97698
806.135,77.43498,     -15.31817
806.735,77.49621,     -15.17591
807.335,77.55757,     -15.22487
807.935,77.61893,     -16.18856
808.535,77.68020,     -14.95698
809.135,77.74107,     -15.53627
809.735,77.80159,     -15.35395
810.335,77.86185,     -15.34510
810.935,77.92220,     -16.14123
811.535,77.98294,     -15.00893
812.135,78.04385,     -15.04537
812.735,78.10464,     -15.54232
813.335,78.16524,     -15.02644
813.935,78.22576,     -15.40098
814.535,78.28635,     -15.52235
815.135,78.34706,     -14.82138
815.735,78.40791,     -15.14965
816.335,78.46875,     -14.96156
816.935,78.52964,     -17.15864
817.535,78.59046,     -15.02266
818.135,78.65122,     -15.06335
818.735,78.71195,     -15.53017
819.335,78.77269,     -15.04037
819.935,78.83333,     -14.54476
820.535,78.89378,     -15.18089
821.135,78.95408,     -14.86703
821.735,79.01431,     -15.82815
822.335,79.07455,     -15.38787
822.935,79.13487,     -15.23291
823.535,79.19525,     -15.17922
824.135,79.25572,     -15.28162
824.735,79.31621,     -15.07467
825.335,79.37671,     -14.93447
825.935,79.43721,     -14.81693
826.535,79.49772,     -14.74772
827.135,79.55829,     -14.83620
827.735,79.61899,     -14.84298
828.335,79.67983,     -15.95207
828.935,79.74069,     -17.99285
829.535,79.80142,     -15.71857
830.135,79.86208,     -17.47629
830.735,79.92256,     -16.60010
831.335,79.98289,     -15.29981
831.935,80.04308,     -15.13513
832.535,80.10319,     -14.92575
833.135,80.16325,     -15.24688
833.735,80.22331,     -15.00014
834.335,80.28328,     -14.91445
834.935,80.34341,     -14.84396
835.535,80.40356,     -14.85656
836.135,80.46387,     -15.27678
836.735,80.52419,     -15.68699
837.335,80.58462,     -15.34850
837.935,80.64512,     -15.56907
838.535,80.70565,     -17.08735
839.135,80.76605,     -15.49008
839.735,80.82615,     -16.44774
840.335,80.88602,     -15.66825
840.935,80.94576,     -15.29482
841.535,81.00573,     -15.70733
842.135,81.06587,     -15.43177
842.735,81.12608,     -15.26346
843.335,81.18623,     -15.52635
843.935,81.24620,     -15.38712
844.535,81.30626,     -15.38618
845.135,81.36644,     -15.38654
845.735,81.42688,     -15.40518
846.335,81.48751,     -15.38929
846.935,81.54807,     -15.38975
847.535,81.60844,     -15.39062
848.135,81.66850,     -15.39098
848.735,81.72846,     -15.39085
849.335,81.78844,     -15.39091
849.935,81.84867,     -15.39127
850.535,81.90910,     -15.39233
851.135,81.96963,     -15.39307
851.735,82.03018,     -15.39416
852.335,82.09059,     -15.39616
852.935,82.15083,     -15.39800
853.535,82.21084,     -15.39921
854.135,82.27067,     -15.39962
854.735,82.33039,     -15.39978
855.335,82.39004,     -15.39995
855.935,82.44965,     -15.40001
856.535,82.50918,     -15.40017
857.135,82.56878,     -15.40043
857.735,82.62838,     -15.40100
858.335,82.68812,     -15.40155
858.935,82.74792,     -15.40253
859.535,82.80775,     -15.40349
860.135,82.86765,     -15.40415
860.735,82.92767,     -15.40451
861.335,82.98795,     -15.40467
861.935,83.04833,     -15.40514
862.535,83.10876,     -15.40560
863.135,83.16912,     -15.40616
863.735,83.22944,     -15.40763
864.335,83.28972,     -15.40969
864.935,83.35005,     -15.41045
865.535,83.41042,     -15.41040
866.135,83.47087,     -15.40987
866.735,83.53145,     -15.40993
867.335,83.59200,     -15.41021
867.935,83.65260,     -15.41015
868.535,83.71311,     -15.40991
869.135,83.77366,     -15.40997
869.735,83.83416,     -15.41073
870.335,83.89468,     -15.41158
870.935,83.95525,     -15.41195
871.535,84.01586,     -15.41272
872.135,84.07650,     -15.41328
872.735,84.13712,     -15.41416
873.335,84.19752,     -15.41550
873.935,84.25786,     -15.41656
874.535,84.31812,     -15.41691
875.135,84.37840,     -15.41678
875.735,84.43883,     -15.41696
876.335,84.49927,     -15.41710
876.935,84.55980,     -15.41735
877.535,84.62032,     -15.41762
878.135,84.68086,     -15.41768
878.735,84.74138,     -15.41784
879.335,84.80190,     -15.41769
879.935,84.86235,     -15.41766
880.535,84.92274,     -15.41792
881.135,84.98303,     -15.41828
881.735,85.04328,     -15.41863
882.335,85.10358,     -15.41869
882.935,85.16394,     -15.41855
883.535,85.22422,     -15.41841
884.135,85.28449,     -15.41868
884.735,85.34460,     -15.41932
885.335,85.40464,     -15.42048
885.935,85.46468,     -15.42174
886.535,85.52477,     -15.42231
887.135,85.58500,     -15.42177
887.735,85.64530,     -15.42083
888.335,85.70557,     -15.42009
888.935,85.76582,     -15.41965
889.535,85.82601,     -15.41941
890.135,85.88618,     -15.41917
890.735,85.94628,     -15.41953
891.335,86.00633,     -15.42019
891.935,86.06642,     -15.42035
892.535,86.12653,     -15.42041
893.135,86.18664,     -15.42087
893.735,86.24673,     -15.42163
894.335,86.30677,     -15.42189
894.935,86.36673,     -15.42145
895.535,86.42666,     -15.42121
896.135,86.48653,     -15.42048
896.735,86.54641,     -15.41963
897.335,86.60620,     -15.41848
897.935,86.66598,     -15.41795
898.535,86.72580,     -15.41792
899.135,86.78586,     -15.41807
899.235,86.79590,     -15.41813