File: data-raw/raw_biomass/LG.csv
#EXPORTTYPE:                 ,DATA SINGLE
#FILE:                       ,LG2.ngb-st9
#FORMAT:                     ,NETZSCH5
#FTYPE:                      ,ANSI
#IDENTITY:                   ,Saras
#DECIMAL:                    ,POINT
#SEPARATOR:                  ,COMMA
#MTYPE:                      ,TG
#INSTRUMENT:                 ,NETZSCH TG 209F1 Libra
#PROJECT:                    ,PM
#DATE/TIME:                  ,17/01/2018 9:46:31 AM (UTC+11)
#CORR. FILE:                 ,
#TEMPCAL:                    ,TCALZERO.TCX
#LABORATORY:                 ,Capture Lab
#OPERATOR:                   ,Frank
#REMARK:                     ,
#SAMPLE:                     ,LG2
#SAMPLE MASS /mg:            ,18.4170
#MATERIAL:                   ,zeolite
#TYPE OF CRUCIBLE:           ,Al2O3
#SAMPLE CRUCIBLE MASS /mg:   ,164.3530
#REFERENCE CRUCIBLE MASS /mg:,
#M.RANGE /mg:                ,2000
#CORR. CODE:                 ,090
#RANGE:                      ,32°C/10.0(K/min)/900°C
#SEGMENT:                    ,S1/1
#SEG. 1:                     ,32°C/10.0(K/min)/900°C

##Temp./°C,Time/min,Mass loss/mg
 32.04800, 0.00000,-1.699158e-003
 32.64800, 0.18035,-3.986744e-003
 33.24800, 0.26827,-3.956591e-003
 33.84800, 0.35225,-4.053225e-003
 34.44800, 0.42787,-4.248651e-003
 35.04800, 0.49666,-4.391958e-003
 35.64800, 0.56090,-4.678777e-003
 36.24800, 0.62131,-4.857463e-003
 36.84800, 0.67874,-5.105295e-003
 37.44800, 0.73394,-5.261181e-003
 38.04800, 0.78747,-5.421808e-003
 38.64800, 0.83969,-5.514018e-003
 39.24800, 0.89090,-5.791618e-003
 39.84800, 0.94134,-5.803914e-003
 40.44800, 0.99119,-6.035075e-003
 41.04800, 1.04072,-6.290564e-003
 41.64800, 1.09004,-6.493989e-003
 42.24800, 1.13943,-6.538582e-003
 42.84800, 1.18896,-6.841667e-003
 43.44800, 1.23872,-7.261465e-003
 44.04800, 1.28881,-7.511383e-003
 44.64800, 1.33922,-7.903412e-003
 45.24800, 1.39008,-8.186296e-003
 45.84800, 1.44153,-8.455616e-003
 46.44800, 1.49358,-9.068499e-003
 47.04800, 1.54638,-9.479932e-003
 47.64800, 1.59993,-9.866113e-003
 48.24800, 1.65421,-1.056695e-002
 48.84800, 1.70931,-1.135343e-002
 49.44800, 1.76509,-1.222291e-002
 50.04800, 1.82163,-1.326051e-002
 50.64800, 1.87887,-1.415615e-002
 51.24800, 1.93684,-1.547181e-002
 51.84800, 1.99541,-1.677168e-002
 52.44800, 2.05463,-1.821290e-002
 53.04800, 2.11435,-1.961816e-002
 53.64800, 2.17460,-2.118230e-002
 54.24800, 2.23531,-2.265555e-002
 54.84800, 2.29637,-2.411312e-002
 55.44800, 2.35771,-2.559824e-002
 56.04800, 2.41923,-2.718982e-002
 56.64800, 2.48083,-2.915936e-002
 57.24800, 2.54252,-3.122580e-002
 57.84800, 2.60420,-3.360699e-002
 58.44800, 2.66583,-3.579646e-002
 59.04800, 2.72740,-3.772985e-002
 59.64800, 2.78886,-3.992723e-002
 60.24800, 2.85020,-4.245186e-002
 60.84800, 2.91135,-4.467448e-002
 61.44800, 2.97233,-4.693595e-002
 62.04800, 3.03316,-4.927698e-002
 62.64800, 3.09383,-5.165430e-002
 63.24800, 3.15438,-5.418671e-002
 63.84800, 3.21487,-5.624126e-002
 64.44800, 3.27520,-5.828336e-002
 65.04800, 3.33543,-6.132435e-002
 65.64800, 3.39552,-6.515843e-002
 66.24800, 3.45551,-6.829602e-002
 66.84800, 3.51542,-7.085273e-002
 67.44800, 3.57534,-7.369265e-002
 68.04800, 3.63524,-7.678004e-002
 68.64800, 3.69501,-7.990749e-002
 69.24800, 3.75466,-8.285613e-002
 69.84800, 3.81429,-8.577548e-002
 70.44800, 3.87399,-8.857984e-002
 71.04800, 3.93367,-9.181597e-002
 71.64800, 3.99328,-9.531630e-002
 72.24800, 4.05292,-9.838509e-002
 72.84800, 4.11250,      -0.10154
 73.44800, 4.17215,      -0.10497
 74.04800, 4.23177,      -0.10855
 74.64800, 4.29143,      -0.11185
 75.24800, 4.35118,      -0.11527
 75.84800, 4.41095,      -0.11847
 76.44800, 4.47077,      -0.12179
 77.04800, 4.53054,      -0.12498
 77.64800, 4.59038,      -0.12840
 78.24800, 4.65019,      -0.13197
 78.84800, 4.71012,      -0.13556
 79.44800, 4.77017,      -0.13885
 80.04800, 4.83031,      -0.14244
 80.64800, 4.89036,      -0.14552
 81.24800, 4.95032,      -0.14866
 81.84800, 5.01008,      -0.15194
 82.44800, 5.06977,      -0.15494
 83.04800, 5.12945,      -0.15785
 83.64800, 5.18905,      -0.16096
 84.24800, 5.24865,      -0.16397
 84.84800, 5.30827,      -0.16696
 85.44800, 5.36781,      -0.16962
 86.04800, 5.42744,      -0.17224
 86.64800, 5.48709,      -0.17498
 87.24800, 5.54679,      -0.17783
 87.84800, 5.60656,      -0.18082
 88.44800, 5.66632,      -0.18309
 89.04800, 5.72612,      -0.18557
 89.64800, 5.78594,      -0.18795
 90.24800, 5.84574,      -0.19046
 90.84800, 5.90560,      -0.19227
 91.44800, 5.96556,      -0.19389
 92.04800, 6.02565,      -0.19582
 92.64800, 6.08583,      -0.19773
 93.24800, 6.14599,      -0.19948
 93.84800, 6.20612,      -0.20139
 94.44800, 6.26616,      -0.20378
 95.04800, 6.32613,      -0.20568
 95.64800, 6.38607,      -0.20767
 96.24800, 6.44606,      -0.20934
 96.84800, 6.50603,      -0.21092
 97.44800, 6.56601,      -0.21241
 98.04800, 6.62590,      -0.21379
 98.64800, 6.68576,      -0.21517
 99.24800, 6.74565,      -0.21651
 99.84800, 6.80552,      -0.21801
100.448, 6.86539,      -0.21975
101.048, 6.92529,      -0.22137
101.648, 6.98521,      -0.22277
102.248, 7.04517,      -0.22438
102.848, 7.10517,      -0.22580
103.448, 7.16517,      -0.22720
104.048, 7.22517,      -0.22850
104.648, 7.28518,      -0.22981
105.248, 7.34521,      -0.23102
105.848, 7.40525,      -0.23232
106.448, 7.46528,      -0.23352
107.048, 7.52540,      -0.23492
107.648, 7.58553,      -0.23583
108.248, 7.64568,      -0.23690
108.848, 7.70582,      -0.23819
109.448, 7.76596,      -0.23934
110.048, 7.82610,      -0.24045
110.648, 7.88616,      -0.24175
111.248, 7.94620,      -0.24293
111.848, 8.00625,      -0.24426
112.448, 8.06632,      -0.24544
113.048, 8.12638,      -0.24672
113.648, 8.18644,      -0.24811
114.248, 8.24650,      -0.24939
114.848, 8.30658,      -0.25087
115.448, 8.36670,      -0.25224
116.048, 8.42679,      -0.25351
116.648, 8.48683,      -0.25469
117.248, 8.54686,      -0.25606
117.848, 8.60683,      -0.25754
118.448, 8.66680,      -0.25892
119.048, 8.72686,      -0.26049
119.648, 8.78690,      -0.26194
120.248, 8.84692,      -0.26384
120.848, 8.90695,      -0.26551
121.448, 8.96695,      -0.26704
122.048, 9.02703,      -0.26883
122.648, 9.08705,      -0.27086
123.248, 9.14702,      -0.27272
123.848, 9.20698,      -0.27459
124.448, 9.26683,      -0.27626
125.048, 9.32674,      -0.27802
125.648, 9.38665,      -0.27977
126.248, 9.44663,      -0.28154
126.848, 9.50665,      -0.28408
127.448, 9.56671,      -0.28652
128.048, 9.62669,      -0.28827
128.648, 9.68666,      -0.29024
129.248, 9.74667,      -0.29228
129.848, 9.80673,      -0.29483
130.448, 9.86679,      -0.29727
131.048, 9.92684,      -0.29921
131.648, 9.98678,      -0.30127
132.248,10.04673,      -0.30361
132.848,10.10672,      -0.30616
133.448,10.16666,      -0.30859
134.048,10.22664,      -0.31103
134.648,10.28659,      -0.31347
135.248,10.34654,      -0.31561
135.848,10.40647,      -0.31815
136.448,10.46635,      -0.32058
137.048,10.52616,      -0.32321
137.648,10.58599,      -0.32579
138.248,10.64590,      -0.32786
138.848,10.70586,      -0.33028
139.448,10.76589,      -0.33319
140.048,10.82583,      -0.33608
140.648,10.88581,      -0.33905
141.248,10.94579,      -0.34196
141.848,11.00585,      -0.34490
142.448,11.06585,      -0.34781
143.048,11.12575,      -0.35105
143.648,11.18555,      -0.35420
144.248,11.24537,      -0.35742
144.848,11.30526,      -0.36079
145.448,11.36521,      -0.36378
146.048,11.42522,      -0.36740
146.648,11.48525,      -0.37051
147.248,11.54538,      -0.37386
147.848,11.60540,      -0.37728
148.448,11.66537,      -0.38069
149.048,11.72528,      -0.38401
149.648,11.78517,      -0.38744
150.248,11.84509,      -0.39055
150.848,11.90498,      -0.39406
151.448,11.96485,      -0.39717
152.048,12.02469,      -0.40040
152.648,12.08457,      -0.40372
153.248,12.14449,      -0.40737
153.848,12.20442,      -0.41100
154.448,12.26432,      -0.41467
155.048,12.32417,      -0.41830
155.648,12.38400,      -0.42214
156.248,12.44385,      -0.42567
156.848,12.50371,      -0.42877
157.448,12.56357,      -0.43238
158.048,12.62350,      -0.43600
158.648,12.68348,      -0.43940
159.248,12.74361,      -0.44332
159.848,12.80375,      -0.44664
160.448,12.86388,      -0.45000
161.048,12.92395,      -0.45349
161.648,12.98397,      -0.45694
162.248,13.04388,      -0.46024
162.848,13.10377,      -0.46334
163.448,13.16375,      -0.46667
164.048,13.22380,      -0.47019
164.648,13.28388,      -0.47387
165.248,13.34391,      -0.47746
165.848,13.40392,      -0.48089
166.448,13.46397,      -0.48438
167.048,13.52398,      -0.48853
167.648,13.58404,      -0.49151
168.248,13.64405,      -0.49514
168.848,13.70406,      -0.49879
169.448,13.76402,      -0.50230
170.048,13.82401,      -0.50599
170.648,13.88402,      -0.50941
171.248,13.94402,      -0.51278
171.848,14.00407,      -0.51621
172.448,14.06404,      -0.51949
173.048,14.12403,      -0.52297
173.648,14.18403,      -0.52668
174.248,14.24401,      -0.53010
174.848,14.30399,      -0.53349
175.448,14.36397,      -0.53734
176.048,14.42395,      -0.54103
176.648,14.48393,      -0.54445
177.248,14.54391,      -0.54766
177.848,14.60387,      -0.55118
178.448,14.66383,      -0.55477
179.048,14.72386,      -0.55894
179.648,14.78384,      -0.56275
180.248,14.84383,      -0.56637
180.848,14.90377,      -0.56993
181.448,14.96374,      -0.57374
182.048,15.02380,      -0.57712
182.648,15.08389,      -0.58071
183.248,15.14397,      -0.58476
183.848,15.20403,      -0.58877
184.448,15.26407,      -0.59276
185.048,15.32408,      -0.59670
185.648,15.38411,      -0.60051
186.248,15.44410,      -0.60443
186.848,15.50413,      -0.60806
187.448,15.56414,      -0.61185
188.048,15.62412,      -0.61580
188.648,15.68402,      -0.61977
189.248,15.74389,      -0.62432
189.848,15.80377,      -0.62853
190.448,15.86374,      -0.63302
191.048,15.92373,      -0.63726
191.648,15.98372,      -0.64151
192.248,16.04374,      -0.64610
192.848,16.10366,      -0.65052
193.448,16.16354,      -0.65474
194.048,16.22343,      -0.65907
194.648,16.28340,      -0.66280
195.248,16.34346,      -0.66773
195.848,16.40357,      -0.67246
196.448,16.46366,      -0.67719
197.048,16.52379,      -0.68220
197.648,16.58388,      -0.68676
198.248,16.64390,      -0.69127
198.848,16.70384,      -0.69590
199.448,16.76372,      -0.70081
200.048,16.82365,      -0.70546
200.648,16.88359,      -0.71066
201.248,16.94358,      -0.71571
201.848,17.00358,      -0.72064
202.448,17.06355,      -0.72616
203.048,17.12353,      -0.73139
203.648,17.18348,      -0.73684
204.248,17.24350,      -0.74186
204.848,17.30356,      -0.74701
205.448,17.36366,      -0.75226
206.048,17.42365,      -0.75769
206.648,17.48348,      -0.76282
207.248,17.54328,      -0.76845
207.848,17.60310,      -0.77398
208.448,17.66308,      -0.77952
209.048,17.72311,      -0.78495
209.648,17.78318,      -0.79040
210.248,17.84325,      -0.79584
210.848,17.90332,      -0.80159
211.448,17.96341,      -0.80714
212.048,18.02344,      -0.81317
212.648,18.08342,      -0.81902
213.248,18.14335,      -0.82465
213.848,18.20323,      -0.83049
214.448,18.26313,      -0.83640
215.048,18.32305,      -0.84222
215.648,18.38305,      -0.84827
216.248,18.44313,      -0.85463
216.848,18.50320,      -0.86059
217.448,18.56323,      -0.86663
218.048,18.62314,      -0.87257
218.648,18.68304,      -0.87882
219.248,18.74298,      -0.88487
219.848,18.80299,      -0.89099
220.448,18.86293,      -0.89723
221.048,18.92284,      -0.90362
221.648,18.98273,      -0.90961
222.248,19.04259,      -0.91585
222.848,19.10250,      -0.92203
223.448,19.16242,      -0.92834
224.048,19.22245,      -0.93469
224.648,19.28254,      -0.94106
225.248,19.34260,      -0.94722
225.848,19.40261,      -0.95383
226.448,19.46261,      -0.96029
227.048,19.52261,      -0.96662
227.648,19.58264,      -0.97297
228.248,19.64263,      -0.97950
228.848,19.70267,      -0.98604
229.448,19.76273,      -0.99255
230.048,19.82277,      -0.99903
230.648,19.88282,      -1.00591
231.248,19.94290,      -1.01224
231.848,20.00303,      -1.01871
232.448,20.06312,      -1.02629
233.048,20.12320,      -1.03294
233.648,20.18328,      -1.03939
234.248,20.24334,      -1.04645
234.848,20.30339,      -1.05380
235.448,20.36345,      -1.06056
236.048,20.42353,      -1.06770
236.648,20.48361,      -1.07466
237.248,20.54364,      -1.08143
237.848,20.60367,      -1.08877
238.448,20.66364,      -1.09621
239.048,20.72360,      -1.10394
239.648,20.78357,      -1.11150
240.248,20.84350,      -1.11951
240.848,20.90346,      -1.12635
241.448,20.96348,      -1.13449
242.048,21.02362,      -1.14244
242.648,21.08375,      -1.15019
243.248,21.14381,      -1.15754
243.848,21.20380,      -1.16458
244.448,21.26376,      -1.17317
245.048,21.32375,      -1.18141
245.648,21.38373,      -1.18935
246.248,21.44366,      -1.19729
246.848,21.50363,      -1.20534
247.448,21.56360,      -1.21377
248.048,21.62366,      -1.22233
248.648,21.68377,      -1.23090
249.248,21.74392,      -1.23994
249.848,21.80406,      -1.24850
250.448,21.86413,      -1.25704
251.048,21.92411,      -1.26548
251.648,21.98401,      -1.27405
252.248,22.04395,      -1.28288
252.848,22.10397,      -1.29194
253.448,22.16406,      -1.30108
254.048,22.22410,      -1.31034
254.648,22.28412,      -1.31944
255.248,22.34411,      -1.32868
255.848,22.40409,      -1.33782
256.448,22.46405,      -1.34724
257.048,22.52397,      -1.35651
257.648,22.58393,      -1.36507
258.248,22.64392,      -1.37518
258.848,22.70404,      -1.38591
259.448,22.76415,      -1.39561
260.048,22.82414,      -1.40513
260.648,22.88405,      -1.41500
261.248,22.94391,      -1.42487
261.848,23.00388,      -1.43490
262.448,23.06394,      -1.44503
263.048,23.12403,      -1.45487
263.648,23.18416,      -1.46512
264.248,23.24424,      -1.47548
264.848,23.30433,      -1.48602
265.448,23.36438,      -1.49643
266.048,23.42444,      -1.50666
266.648,23.48451,      -1.51722
267.248,23.54466,      -1.52847
267.848,23.60482,      -1.53886
268.448,23.66492,      -1.54940
269.048,23.72493,      -1.55987
269.648,23.78479,      -1.57051
270.248,23.84465,      -1.58155
270.848,23.90448,      -1.59268
271.448,23.96429,      -1.60394
272.048,24.02411,      -1.61490
272.648,24.08398,      -1.62606
273.248,24.14385,      -1.63733
273.848,24.20377,      -1.64859
274.448,24.26372,      -1.65949
275.048,24.32375,      -1.67082
275.648,24.38387,      -1.68220
276.248,24.44404,      -1.69376
276.848,24.50419,      -1.70562
277.448,24.56437,      -1.71731
278.048,24.62444,      -1.72928
278.648,24.68451,      -1.74122
279.248,24.74452,      -1.75305
279.848,24.80453,      -1.76499
280.448,24.86448,      -1.77692
281.048,24.92443,      -1.78898
281.648,24.98443,      -1.80101
282.248,25.04443,      -1.81297
282.848,25.10452,      -1.82575
283.448,25.16460,      -1.83812
284.048,25.22467,      -1.85028
284.648,25.28470,      -1.86273
285.248,25.34474,      -1.87518
285.848,25.40478,      -1.88802
286.448,25.46483,      -1.90088
287.048,25.52487,      -1.91352
287.648,25.58484,      -1.92637
288.248,25.64483,      -1.93931
288.848,25.70484,      -1.95215
289.448,25.76490,      -1.96509
290.048,25.82497,      -1.97853
290.648,25.88504,      -1.99168
291.248,25.94509,      -2.00413
291.848,26.00513,      -2.01887
292.448,26.06520,      -2.03339
293.048,26.12527,      -2.04683
293.648,26.18526,      -2.06027
294.248,26.24518,      -2.07370
294.848,26.30508,      -2.08721
295.448,26.36497,      -2.10133
296.048,26.42495,      -2.11535
296.648,26.48492,      -2.12938
297.248,26.54489,      -2.14371
297.848,26.60492,      -2.15815
298.448,26.66503,      -2.17270
299.048,26.72516,      -2.18757
299.648,26.78532,      -2.20227
300.248,26.84540,      -2.21714
300.848,26.90541,      -2.23246
301.448,26.96535,      -2.24776
302.048,27.02524,      -2.26311
302.648,27.08511,      -2.27853
303.248,27.14500,      -2.30504
303.848,27.20490,      -2.31615
304.448,27.26486,      -2.32886
305.048,27.32486,      -2.34319
305.648,27.38493,      -2.36795
306.248,27.44497,      -2.37969
306.848,27.50505,      -2.39283
307.448,27.56506,      -2.40921
308.048,27.62504,      -2.43139
308.648,27.68496,      -2.44400
309.248,27.74491,      -2.45792
309.848,27.80487,      -2.48487
310.448,27.86487,      -2.49628
311.048,27.92490,      -2.50970
311.648,27.98488,      -2.52571
312.248,28.04491,      -2.55037
312.848,28.10495,      -2.56381
313.448,28.16498,      -2.57855
314.048,28.22499,      -2.60349
314.648,28.28499,      -2.61692
315.248,28.34495,      -2.63184
315.848,28.40497,      -2.65747
316.448,28.46495,      -2.67746
317.048,28.52499,      -2.69944
317.648,28.58502,      -2.71257
318.248,28.64509,      -2.73733
318.848,28.70515,      -2.75630
319.448,28.76518,      -2.77022
320.048,28.82512,      -2.79483
320.648,28.88510,      -2.81525
321.248,28.94513,      -2.83468
321.848,29.00516,      -2.85462
322.448,29.06515,      -2.87525
323.048,29.12510,      -2.89527
323.648,29.18504,      -2.91608
324.248,29.24500,      -2.93630
324.848,29.30499,      -2.95693
325.448,29.36501,      -2.97806
326.048,29.42506,      -2.99858
326.648,29.48513,      -3.02027
327.248,29.54519,      -3.04154
327.848,29.60525,      -3.06342
328.448,29.66529,      -3.08497
329.048,29.72533,      -3.10693
329.648,29.78546,      -3.12967
330.248,29.84565,      -3.15313
330.848,29.90581,      -3.17552
331.448,29.96588,      -3.19844
332.048,30.02584,      -3.22186
332.648,30.08576,      -3.24565
333.248,30.14568,      -3.26898
333.848,30.20566,      -3.29268
334.448,30.26572,      -3.31684
335.048,30.32580,      -3.34134
335.648,30.38593,      -3.36540
336.248,30.44597,      -3.39037
336.848,30.50594,      -3.41518
337.448,30.56582,      -3.44008
338.048,30.62566,      -3.46453
338.648,30.68561,      -3.48987
339.248,30.74565,      -3.51646
339.848,30.80579,      -3.54187
340.448,30.86597,      -3.56766
341.048,30.92609,      -3.59424
341.648,30.98615,      -3.62059
342.248,31.04616,      -3.64680
342.848,31.10613,      -3.67383
343.448,31.16611,      -3.70036
344.048,31.22609,      -3.72892
344.648,31.28609,      -3.75617
345.248,31.34611,      -3.78366
345.848,31.40618,      -3.81226
346.448,31.46628,      -3.84077
347.048,31.52636,      -3.86938
347.648,31.58640,      -3.89784
348.248,31.64645,      -3.92668
348.848,31.70647,      -3.95610
349.448,31.76650,      -3.98493
350.048,31.82652,      -4.01456
350.648,31.88654,      -4.04399
351.248,31.94657,      -4.07473
351.848,32.00657,      -4.10445
352.448,32.06657,      -4.13568
353.048,32.12653,      -4.16767
353.648,32.18643,      -4.19839
354.248,32.24635,      -4.22943
354.848,32.30631,      -4.26125
355.448,32.36643,      -4.29134
356.048,32.42655,      -4.32540
356.648,32.48673,      -4.35642
357.248,32.54682,      -4.38937
357.848,32.60688,      -4.42096
358.448,32.66703,      -4.45389
359.048,32.72721,      -4.48701
359.648,32.78742,      -4.51986
360.248,32.84755,      -4.55336
360.848,32.90758,      -4.58693
361.448,32.96751,      -4.62080
362.048,33.02736,      -4.65458
362.648,33.08716,      -4.68795
363.248,33.14699,      -4.72405
363.848,33.20688,      -4.75885
364.448,33.26684,      -4.79387
365.048,33.32683,      -4.82909
365.648,33.38685,      -4.86421
366.248,33.44682,      -4.89903
366.848,33.50675,      -4.93412
367.448,33.56673,      -4.96994
368.048,33.62678,      -5.00570
368.648,33.68685,      -5.04149
369.248,33.74691,      -5.07767
369.848,33.80699,      -5.11337
370.448,33.86702,      -5.14974
371.048,33.92709,      -5.18633
371.648,33.98716,      -5.22375
372.248,34.04729,      -5.26184
372.848,34.10746,      -5.29859
373.448,34.16758,      -5.33548
374.048,34.22765,      -5.37228
374.648,34.28766,      -5.40930
375.248,34.34766,      -5.44630
375.848,34.40770,      -5.48362
376.448,34.46770,      -5.52105
377.048,34.52773,      -5.55895
377.648,34.58777,      -5.59590
378.248,34.64779,      -5.63262
378.848,34.70779,      -5.66973
379.448,34.76776,      -5.70728
380.048,34.82771,      -5.74402
380.648,34.88769,      -5.78050
381.248,34.94773,      -5.81747
381.848,35.00791,      -5.85518
382.448,35.06812,      -5.89178
383.048,35.12831,      -5.92857
383.648,35.18840,      -5.96474
384.248,35.24844,      -6.00118
384.848,35.30846,      -6.03672
385.448,35.36848,      -6.07285
386.048,35.42849,      -6.10836
386.648,35.48846,      -6.14542
387.248,35.54840,      -6.18052
387.848,35.60822,      -6.21512
388.448,35.66799,      -6.24960
389.048,35.72803,      -6.28416
389.648,35.78838,      -6.31836
390.248,35.84916,      -6.35167
390.848,35.90978,      -6.38503
391.448,35.97009,      -6.42012
392.048,36.03010,      -6.45183
392.648,36.08991,      -6.48434
393.248,36.14953,      -6.51568
393.848,36.20935,      -6.54602
394.448,36.26934,      -6.57660
395.048,36.32972,      -6.60694
395.648,36.39023,      -6.63891
396.248,36.45068,      -6.66861
396.848,36.51100,      -6.69690
397.448,36.57122,      -6.72516
398.048,36.63135,      -6.75473
398.648,36.69144,      -6.78265
399.248,36.75141,      -6.80953
399.848,36.81134,      -6.83599
400.448,36.87133,      -6.86204
401.048,36.93130,      -6.88755
401.648,36.99139,      -6.91136
402.248,37.05152,      -6.93820
402.848,37.11177,      -6.96070
403.448,37.17204,      -6.98649
404.048,37.23222,      -7.00964
404.648,37.29227,      -7.03223
405.248,37.35224,      -7.05511
405.848,37.41207,      -7.07734
406.448,37.47190,      -7.09882
407.048,37.53178,      -7.11981
407.648,37.59180,      -7.14072
408.248,37.65196,      -7.16105
408.848,37.71226,      -7.18083
409.448,37.77259,      -7.20090
410.048,37.83292,      -7.22127
410.648,37.89319,      -7.24066
411.248,37.95348,      -7.25485
411.848,38.01377,      -7.26875
412.448,38.07402,      -7.29090
413.048,38.13423,      -7.30480
413.648,38.19427,      -7.31967
414.248,38.25421,      -7.34483
414.848,38.31416,      -7.35840
415.448,38.37409,      -7.37271
416.048,38.43412,      -7.39948
416.648,38.49407,      -7.41105
417.248,38.55405,      -7.42420
417.848,38.61408,      -7.44273
418.448,38.67414,      -7.46420
419.048,38.73426,      -7.47522
419.648,38.79437,      -7.48857
420.248,38.85446,      -7.50303
420.848,38.91451,      -7.52705
421.448,38.97451,      -7.53794
422.048,39.03438,      -7.55035
422.648,39.09418,      -7.56426
423.248,39.15408,      -7.58987
423.848,39.21407,      -7.59991
424.448,39.27431,      -7.61214
425.048,39.33461,      -7.62515
425.648,39.39495,      -7.63927
426.248,39.45525,      -7.65322
426.848,39.51541,      -7.66734
427.448,39.57548,      -7.68122
428.048,39.63553,      -7.69537
428.648,39.69563,      -7.70906
429.248,39.75575,      -7.72264
429.848,39.81589,      -7.73630
430.448,39.87606,      -7.75001
431.048,39.93615,      -7.76309
431.648,39.99627,      -7.77656
432.248,40.05637,      -7.78958
432.848,40.11653,      -7.80249
433.448,40.17669,      -7.81548
434.048,40.23688,      -7.82832
434.648,40.29701,      -7.84064
435.248,40.35724,      -7.85332
435.848,40.41756,      -7.86569
436.448,40.47780,      -7.87796
437.048,40.53796,      -7.88993
437.648,40.59785,      -7.90200
438.248,40.65774,      -7.91412
438.848,40.71762,      -7.92583
439.448,40.77755,      -7.93724
440.048,40.83751,      -7.94883
440.648,40.89745,      -7.96025
441.248,40.95746,      -7.97133
441.848,41.01745,      -7.98254
442.448,41.07744,      -7.99394
443.048,41.13739,      -8.00578
443.648,41.19731,      -8.01660
444.248,41.25717,      -8.02707
444.848,41.31704,      -8.03799
445.448,41.37696,      -8.04847
446.048,41.43698,      -8.05887
446.648,41.49707,      -8.06949
447.248,41.55711,      -8.08010
447.848,41.61708,      -8.09079
448.448,41.67698,      -8.10078
449.048,41.73683,      -8.11078
449.648,41.79673,      -8.12046
450.248,41.85666,      -8.13025
450.848,41.91660,      -8.14074
451.448,41.97652,      -8.15021
452.048,42.03639,      -8.15988
452.648,42.09630,      -8.16928
453.248,42.15626,      -8.17928
453.848,42.21615,      -8.18877
454.448,42.27603,      -8.19807
455.048,42.33591,      -8.20737
455.648,42.39584,      -8.21647
456.248,42.45592,      -8.22543
456.848,42.51599,      -8.23417
457.448,42.57610,      -8.24338
458.048,42.63620,      -8.25242
458.648,42.69622,      -8.26124
459.248,42.75621,      -8.27048
459.848,42.81617,      -8.27941
460.448,42.87617,      -8.28790
461.048,42.93621,      -8.29646
461.648,42.99617,      -8.30518
462.248,43.05613,      -8.31376
462.848,43.11603,      -8.32218
463.448,43.17606,      -8.33036
464.048,43.23606,      -8.33886
464.648,43.29609,      -8.34693
465.248,43.35614,      -8.35482
465.848,43.41620,      -8.36310
466.448,43.47625,      -8.37182
467.048,43.53624,      -8.38018
467.648,43.59621,      -8.38828
468.248,43.65615,      -8.39605
468.848,43.71616,      -8.40434
469.448,43.77616,      -8.41216
470.048,43.83617,      -8.42003
470.648,43.89616,      -8.42765
471.248,43.95619,      -8.43591
471.848,44.01619,      -8.44390
472.448,44.07621,      -8.45138
473.048,44.13624,      -8.45907
473.648,44.19625,      -8.46657
474.248,44.25621,      -8.47415
474.848,44.31618,      -8.48194
475.448,44.37613,      -8.48964
476.048,44.43612,      -8.49761
476.648,44.49609,      -8.50512
477.248,44.55612,      -8.51278
477.848,44.61616,      -8.51975
478.448,44.67622,      -8.52816
479.048,44.73635,      -8.53572
479.648,44.79651,      -8.54292
480.248,44.85670,      -8.55044
480.848,44.91695,      -8.55779
481.448,44.97719,      -8.56531
482.048,45.03739,      -8.57236
482.648,45.09757,      -8.57944
483.248,45.15766,      -8.58671
483.848,45.21775,      -8.59441
484.448,45.27780,      -8.60198
485.048,45.33788,      -8.60898
485.648,45.39801,      -8.61618
486.248,45.45812,      -8.62316
486.848,45.51823,      -8.63046
487.448,45.57831,      -8.63744
488.048,45.63839,      -8.64473
488.648,45.69838,      -8.65192
489.248,45.75830,      -8.65919
489.848,45.81813,      -8.66633
490.448,45.87802,      -8.67320
491.048,45.93799,      -8.68039
491.648,45.99799,      -8.68756
492.248,46.05792,      -8.69434
492.848,46.11783,      -8.70120
493.448,46.17779,      -8.70815
494.048,46.23798,      -8.71509
494.648,46.29807,      -8.72211
495.248,46.35816,      -8.72900
495.848,46.41812,      -8.73568
496.448,46.47809,      -8.74235
497.048,46.53811,      -8.74954
497.648,46.59816,      -8.75642
498.248,46.65825,      -8.76331
498.848,46.71833,      -8.77020
499.448,46.77834,      -8.77718
500.048,46.83834,      -8.78386
500.648,46.89841,      -8.78944
501.248,46.95849,      -8.79812
501.848,47.01862,      -8.80480
502.448,47.07868,      -8.81149
503.048,47.13875,      -8.81797
503.648,47.19885,      -8.82443
504.248,47.25894,      -8.83128
504.848,47.31896,      -8.83837
505.448,47.37900,      -8.84506
506.048,47.43899,      -8.85214
506.648,47.49898,      -8.85864
507.248,47.55901,      -8.86556
507.848,47.61908,      -8.87177
508.448,47.67919,      -8.87847
509.048,47.73928,      -8.88506
509.648,47.79930,      -8.89172
510.248,47.85922,      -8.89831
510.848,47.91909,      -8.90479
511.448,47.97900,      -8.91117
512.048,48.03901,      -8.91723
512.648,48.09912,      -8.92352
513.248,48.15921,      -8.93016
513.848,48.21931,      -8.93711
514.448,48.27936,      -8.94364
515.048,48.33943,      -8.94990
515.648,48.39947,      -8.95642
516.248,48.45952,      -8.96281
516.848,48.51956,      -8.96907
517.448,48.57954,      -8.97544
518.048,48.63952,      -8.98179
518.648,48.69948,      -8.98857
519.248,48.75953,      -8.99445
519.848,48.81961,      -9.00052
520.448,48.87966,      -9.00721
521.048,48.93973,      -9.01337
521.648,48.99988,      -9.01966
522.248,49.06017,      -9.02585
522.848,49.12046,      -9.03234
523.448,49.18068,      -9.03881
524.048,49.24077,      -9.04517
524.648,49.30081,      -9.05146
525.248,49.36084,      -9.05742
525.848,49.42090,      -9.06360
526.448,49.48095,      -9.06965
527.048,49.54101,      -9.07553
527.648,49.60101,      -9.08217
528.248,49.66102,      -9.08854
528.848,49.72101,      -9.09452
529.448,49.78102,      -9.10089
530.048,49.84111,      -9.10709
530.648,49.90126,      -9.11301
531.248,49.96138,      -9.11892
531.848,50.02135,      -9.12503
532.448,50.08121,      -9.13081
533.048,50.14110,      -9.13678
533.648,50.20106,      -9.14254
534.248,50.26112,      -9.14851
534.848,50.32124,      -9.15439
535.448,50.38130,      -9.16026
536.048,50.44137,      -9.16613
536.648,50.50136,      -9.17259
537.248,50.56136,      -9.17834
537.848,50.62136,      -9.18432
538.448,50.68141,      -9.18999
539.048,50.74154,      -9.19590
539.648,50.80172,      -9.20179
540.248,50.86187,      -9.20757
540.848,50.92195,      -9.21313
541.448,50.98198,      -9.21932
542.048,51.04200,      -9.22529
542.648,51.10204,      -9.23129
543.248,51.16212,      -9.23728
543.848,51.22222,      -9.24284
544.448,51.28234,      -9.24861
545.048,51.34249,      -9.25447
545.648,51.40268,      -9.26028
546.248,51.46286,      -9.26584
546.848,51.52298,      -9.27140
547.448,51.58303,      -9.27717
548.048,51.64307,      -9.28304
548.648,51.70309,      -9.28871
549.248,51.76308,      -9.29438
549.848,51.82298,      -9.29964
550.448,51.88293,      -9.30578
551.048,51.94287,      -9.31070
551.648,52.00292,      -9.31760
552.248,52.06298,      -9.32238
552.848,52.12310,      -9.32859
553.448,52.18326,      -9.33448
554.048,52.24341,      -9.34106
554.648,52.30357,      -9.34644
555.248,52.36370,      -9.35200
555.848,52.42384,      -9.35745
556.448,52.48388,      -9.36260
557.048,52.54384,      -9.36809
557.648,52.60377,      -9.37393
558.248,52.66367,      -9.37978
558.848,52.72359,      -9.38513
559.448,52.78353,      -9.39098
560.048,52.84348,      -9.39652
560.648,52.90350,      -9.40229
561.248,52.96357,      -9.40796
561.848,53.02371,      -9.41342
562.448,53.08385,      -9.41899
563.048,53.14397,      -9.42426
563.648,53.20397,      -9.42951
564.248,53.26391,      -9.43479
564.848,53.32378,      -9.44020
565.448,53.38369,      -9.44562
566.048,53.44369,      -9.45099
566.648,53.50376,      -9.45627
567.248,53.56391,      -9.46191
567.848,53.62415,      -9.46730
568.448,53.68442,      -9.47283
569.048,53.74467,      -9.47814
569.648,53.80484,      -9.48354
570.248,53.86494,      -9.48910
570.848,53.92504,      -9.49427
571.448,53.98509,      -9.49924
572.048,54.04511,      -9.50430
572.648,54.10508,      -9.50995
573.248,54.16505,      -9.51571
573.848,54.22506,      -9.52088
574.448,54.28511,      -9.52624
575.048,54.34518,      -9.53141
575.648,54.40527,      -9.53646
576.248,54.46530,      -9.54132
576.848,54.52531,      -9.54608
577.448,54.58538,      -9.55104
578.048,54.64548,      -9.55630
578.648,54.70561,      -9.56160
579.248,54.76570,      -9.56673
579.848,54.82573,      -9.57186
580.448,54.88577,      -9.57662
581.048,54.94582,      -9.58174
581.648,55.00585,      -9.58690
582.248,55.06583,      -9.59155
582.848,55.12584,      -9.59656
583.448,55.18587,      -9.60142
584.048,55.24594,      -9.60646
584.648,55.30599,      -9.61112
585.248,55.36607,      -9.61617
585.848,55.42620,      -9.62085
586.448,55.48631,      -9.62539
587.048,55.54633,      -9.63024
587.648,55.60632,      -9.63541
588.248,55.66623,      -9.64033
588.848,55.72623,      -9.64518
589.448,55.78627,      -9.64955
590.048,55.84638,      -9.65402
590.648,55.90646,      -9.65888
591.248,55.96660,      -9.66354
591.848,56.02662,      -9.66780
592.448,56.08666,      -9.67225
593.048,56.14665,      -9.67681
593.648,56.20667,      -9.68107
594.248,56.26609,      -9.68590
594.848,56.32519,      -9.69025
595.448,56.38420,      -9.69450
596.048,56.44370,      -9.69861
596.648,56.50397,      -9.70276
597.248,56.56465,      -9.70703
597.848,56.62539,      -9.71160
598.448,56.68586,      -9.71589
599.048,56.74596,      -9.72042
599.648,56.80575,      -9.72472
600.248,56.86544,      -9.72900
600.848,56.92515,      -9.73321
601.448,56.98508,      -9.73753
602.048,57.04509,      -9.74199
602.648,57.10519,      -9.74565
603.248,57.16537,      -9.74971
603.848,57.22553,      -9.75396
604.448,57.28566,      -9.75781
605.048,57.34568,      -9.76204
605.648,57.40566,      -9.76599
606.248,57.46567,      -9.76974
606.848,57.52570,      -9.77375
607.448,57.58575,      -9.77761
608.048,57.64583,      -9.78137
608.648,57.70598,      -9.78510
609.248,57.76608,      -9.78934
609.848,57.82617,      -9.79306
610.448,57.88616,      -9.79678
611.048,57.94610,      -9.80075
611.648,58.00604,      -9.80454
612.248,58.06598,      -9.80830
612.848,58.12599,      -9.81223
613.448,58.18611,      -9.81590
614.048,58.24625,      -9.81883
614.648,58.30639,      -9.82308
615.248,58.36650,      -9.82692
615.848,58.42657,      -9.83037
616.448,58.48661,      -9.83421
617.048,58.54661,      -9.83795
617.648,58.60663,      -9.84140
618.248,58.66665,      -9.84524
618.848,58.72668,      -9.84899
619.448,58.78671,      -9.85203
620.048,58.84676,      -9.85548
620.648,58.90680,      -9.85903
621.248,58.96683,      -9.86247
621.848,59.02690,      -9.86593
622.448,59.08702,      -9.86940
623.048,59.14710,      -9.87251
623.648,59.20713,      -9.87585
624.248,59.26710,      -9.87929
624.848,59.32711,      -9.88292
625.448,59.38701,      -9.88655
626.048,59.44690,      -9.89010
626.648,59.50678,      -9.89324
627.248,59.56670,      -9.89648
627.848,59.62669,      -9.89962
628.448,59.68678,      -9.90297
629.048,59.74701,      -9.90632
629.648,59.80723,      -9.90894
630.248,59.86739,      -9.91240
630.848,59.92749,      -9.91577
631.448,59.98749,      -9.91891
632.048,60.04749,      -9.92209
632.648,60.10749,      -9.92488
633.248,60.16753,      -9.92808
633.848,60.22760,      -9.93157
634.448,60.28765,      -9.93461
635.048,60.34768,      -9.93778
635.648,60.40774,      -9.94082
636.248,60.46783,      -9.94396
636.848,60.52784,      -9.94680
637.448,60.58777,      -9.94963
638.048,60.64765,      -9.95257
638.648,60.70752,      -9.95550
639.248,60.76745,      -9.95855
639.848,60.82744,      -9.96203
640.448,60.88753,      -9.96463
641.048,60.94764,      -9.96762
641.648,61.00773,      -9.97017
642.248,61.06772,      -9.97290
642.848,61.12762,      -9.97583
643.448,61.18744,      -9.97894
644.048,61.24735,      -9.98242
644.648,61.30744,      -9.98566
645.248,61.36766,      -9.98840
645.848,61.42797,      -9.99102
646.448,61.48816,      -9.99407
647.048,61.54825,      -9.99721
647.648,61.60827,      -9.99994
648.248,61.66816,     -10.00277
648.848,61.72791,     -10.00585
649.448,61.78769,     -10.00873
650.048,61.84759,     -10.01179
650.648,61.90777,     -10.01483
651.248,61.96795,     -10.01791
651.848,62.02824,     -10.02088
652.448,62.08843,     -10.02343
653.048,62.14858,     -10.02656
653.648,62.20853,     -10.02959
654.248,62.26835,     -10.03251
654.848,62.32818,     -10.03543
655.448,62.38811,     -10.03816
656.048,62.44814,     -10.04069
656.648,62.50833,     -10.04354
657.248,62.56850,     -10.04628
657.848,62.62864,     -10.04943
658.448,62.68876,     -10.05276
659.048,62.74882,     -10.05538
659.648,62.80885,     -10.05800
660.248,62.86880,     -10.06075
660.848,62.92877,     -10.06377
661.448,62.98880,     -10.06702
662.048,63.04889,     -10.06991
662.648,63.10895,     -10.07292
663.248,63.16899,     -10.07592
663.848,63.22903,     -10.07875
664.448,63.28913,     -10.08124
665.048,63.34921,     -10.08378
665.648,63.40925,     -10.08681
666.248,63.46916,     -10.08998
666.848,63.52902,     -10.09318
667.448,63.58890,     -10.09607
668.048,63.64880,     -10.09903
668.648,63.70883,     -10.10205
669.248,63.76884,     -10.10478
669.848,63.82899,     -10.10662
670.448,63.88912,     -10.10935
671.048,63.94924,     -10.11325
671.648,64.00932,     -10.11627
672.248,64.06934,     -10.11905
672.848,64.12936,     -10.12214
673.448,64.18939,     -10.12525
674.048,64.24947,     -10.12845
674.648,64.30957,     -10.13141
675.248,64.36969,     -10.13442
675.848,64.42975,     -10.13738
676.448,64.48977,     -10.14059
677.048,64.54978,     -10.14373
677.648,64.60981,     -10.14656
678.248,64.66985,     -10.14988
678.848,64.72985,     -10.15302
679.448,64.78984,     -10.15635
680.048,64.84981,     -10.15957
680.648,64.90981,     -10.16300
681.248,64.96983,     -10.16652
681.848,65.02982,     -10.17003
682.448,65.08980,     -10.17335
683.048,65.14977,     -10.17668
683.648,65.20972,     -10.18022
684.248,65.26971,     -10.18333
684.848,65.32974,     -10.18647
685.448,65.38981,     -10.18958
686.048,65.44993,     -10.19263
686.648,65.50992,     -10.19596
687.248,65.56986,     -10.19948
687.848,65.62977,     -10.20309
688.448,65.68972,     -10.20663
689.048,65.74977,     -10.21006
689.648,65.80981,     -10.21339
690.248,65.86988,     -10.21680
690.848,65.92998,     -10.22063
691.448,65.99016,     -10.22427
692.048,66.05032,     -10.22810
692.648,66.11040,     -10.23170
693.248,66.17041,     -10.23524
693.848,66.23030,     -10.23877
694.448,66.29023,     -10.24208
695.048,66.35026,     -10.24499
695.648,66.41040,     -10.24820
696.248,66.47067,     -10.25352
696.848,66.53091,     -10.25714
697.448,66.59109,     -10.26091
698.048,66.65116,     -10.26497
698.648,66.71118,     -10.26832
699.248,66.77115,     -10.27099
699.848,66.83116,     -10.27554
700.448,66.89113,     -10.27940
701.048,66.95113,     -10.28421
701.648,67.01117,     -10.28836
702.248,67.07130,     -10.29168
702.848,67.13149,     -10.29541
703.448,67.19163,     -10.29903
704.048,67.25169,     -10.30286
704.648,67.31168,     -10.30648
705.248,67.37175,     -10.31071
705.848,67.43186,     -10.31473
706.448,67.49204,     -10.31896
707.048,67.55220,     -10.32339
707.648,67.61235,     -10.32769
708.248,67.67245,     -10.33184
708.848,67.73255,     -10.33565
709.448,67.79262,     -10.33994
710.048,67.85274,     -10.34441
710.648,67.91286,     -10.34876
711.248,67.97299,     -10.35298
711.848,68.03320,     -10.35685
712.448,68.09341,     -10.36108
713.048,68.15371,     -10.36542
713.648,68.21393,     -10.36975
714.248,68.27409,     -10.37398
714.848,68.33422,     -10.37857
715.448,68.39437,     -10.38281
716.048,68.45461,     -10.38720
716.648,68.51489,     -10.39182
717.248,68.57511,     -10.39627
717.848,68.63518,     -10.40078
718.448,68.69511,     -10.40531
719.048,68.75503,     -10.40942
719.648,68.81502,     -10.41394
720.248,68.87513,     -10.41858
720.848,68.93530,     -10.42293
721.448,68.99552,     -10.42707
722.048,69.05570,     -10.43098
722.648,69.11581,     -10.43525
723.248,69.17588,     -10.43988
723.848,69.23592,     -10.44420
724.448,69.29606,     -10.44869
725.048,69.35618,     -10.45334
725.648,69.41635,     -10.45783
726.248,69.47656,     -10.46248
726.848,69.53672,     -10.46701
727.448,69.59684,     -10.47145
728.048,69.65693,     -10.47615
728.648,69.71697,     -10.48028
729.248,69.77704,     -10.48431
729.848,69.83707,     -10.48853
730.448,69.89708,     -10.49286
731.048,69.95712,     -10.49576
731.648,70.01718,     -10.50084
732.248,70.07725,     -10.50599
732.848,70.13740,     -10.51059
733.448,70.19755,     -10.51444
734.048,70.25778,     -10.51839
734.648,70.31803,     -10.52144
735.248,70.37822,     -10.52627
735.848,70.43833,     -10.53040
736.448,70.49839,     -10.53392
737.048,70.55853,     -10.53755
737.648,70.61877,     -10.54283
738.248,70.67909,     -10.54647
738.848,70.73938,     -10.55069
739.448,70.79961,     -10.55496
740.048,70.85978,     -10.55902
740.648,70.91980,     -10.56213
741.248,70.97972,     -10.56593
741.848,71.03970,     -10.56937
742.448,71.09969,     -10.57310
743.048,71.15978,     -10.57670
743.648,71.21993,     -10.58024
744.248,71.28020,     -10.58367
744.848,71.34053,     -10.58740
745.448,71.40086,     -10.59090
746.048,71.46106,     -10.59418
746.648,71.52125,     -10.59752
747.248,71.58140,     -10.60084
747.848,71.64168,     -10.60396
748.448,71.70203,     -10.60539
749.048,71.76241,     -10.60856
749.648,71.82273,     -10.61391
750.248,71.88303,     -10.61691
750.848,71.94321,     -10.61963
751.448,72.00336,     -10.62215
752.048,72.06344,     -10.62476
752.648,72.12356,     -10.62729
753.248,72.18373,     -10.62951
753.848,72.24401,     -10.63225
754.448,72.30429,     -10.63484
755.048,72.36457,     -10.63781
755.648,72.42469,     -10.64063
756.248,72.48481,     -10.64314
756.848,72.54491,     -10.64587
757.448,72.60506,     -10.64829
758.048,72.66514,     -10.65080
758.648,72.72518,     -10.65292
759.248,72.78527,     -10.65553
759.848,72.84545,     -10.65738
760.448,72.90576,     -10.65914
761.048,72.96603,     -10.66105
761.648,73.02623,     -10.66326
762.248,73.08630,     -10.66557
762.848,73.14625,     -10.66756
763.448,73.20626,     -10.66930
764.048,73.26638,     -10.67090
764.648,73.32656,     -10.67271
765.248,73.38675,     -10.67463
765.848,73.44679,     -10.67684
766.448,73.50675,     -10.67844
767.048,73.56671,     -10.68015
767.648,73.62674,     -10.68176
768.248,73.68691,     -10.68316
768.848,73.74713,     -10.68453
769.448,73.80732,     -10.68620
770.048,73.86735,     -10.68798
770.648,73.92727,     -10.68993
771.248,73.98710,     -10.69224
771.848,74.04704,     -10.69411
772.448,74.10706,     -10.69551
773.048,74.16710,     -10.69672
773.648,74.22718,     -10.69802
774.248,74.28716,     -10.69931
774.848,74.34712,     -10.70072
775.448,74.40693,     -10.70194
776.048,74.46676,     -10.70334
776.648,74.52662,     -10.70494
777.248,74.58664,     -10.70665
777.848,74.64674,     -10.70816
778.448,74.70693,     -10.70947
779.048,74.76697,     -10.71087
779.648,74.82686,     -10.71207
780.248,74.88661,     -10.71316
780.848,74.94631,     -10.71448
781.448,75.00603,     -10.71547
782.048,75.06587,     -10.71658
782.648,75.12583,     -10.71789
783.248,75.18599,     -10.71927
783.848,75.24614,     -10.72078
784.448,75.30619,     -10.72227
785.048,75.36609,     -10.72357
785.648,75.42578,     -10.72451
786.248,75.48548,     -10.72552
786.848,75.54521,     -10.72667
787.448,75.60502,     -10.72776
788.048,75.66476,     -10.72884
788.648,75.72448,     -10.73030
789.248,75.78424,     -10.73141
789.848,75.84405,     -10.73253
790.448,75.90393,     -10.73378
791.048,75.96377,     -10.73464
791.648,76.02355,     -10.73557
792.248,76.08334,     -10.73684
792.848,76.14311,     -10.73812
793.448,76.20299,     -10.73892
794.048,76.26295,     -10.73973
794.648,76.32280,     -10.74092
795.248,76.38252,     -10.74185
795.848,76.44222,     -10.74276
796.448,76.50197,     -10.74369
797.048,76.56185,     -10.74468
797.648,76.62173,     -10.74557
798.248,76.68161,     -10.74687
798.848,76.74143,     -10.74796
799.448,76.80121,     -10.74892
800.048,76.86097,     -10.75010
800.648,76.92072,     -10.75102
801.248,76.98051,     -10.75211
801.848,77.04028,     -10.75300
802.448,77.10012,     -10.75409
803.048,77.15994,     -10.75498
803.648,77.21982,     -10.75597
804.248,77.27970,     -10.75696
804.848,77.33953,     -10.75769
805.448,77.39943,     -10.75813
806.048,77.45929,     -10.75912
806.648,77.51931,     -10.76010
807.248,77.57933,     -10.76109
807.848,77.63939,     -10.76228
808.448,77.69936,     -10.76315
809.048,77.75926,     -10.76423
809.648,77.81914,     -10.76530
810.248,77.87901,     -10.76650
810.848,77.93900,     -10.76740
811.448,77.99913,     -10.76817
812.048,78.05931,     -10.76886
812.648,78.11943,     -10.76937
813.248,78.17942,     -10.77002
813.848,78.23931,     -10.77110
814.448,78.29916,     -10.77228
815.048,78.35899,     -10.77326
815.648,78.41880,     -10.77404
816.248,78.47857,     -10.77492
816.848,78.53827,     -10.77570
817.448,78.59802,     -10.77677
818.048,78.65787,     -10.77756
818.648,78.71780,     -10.77854
819.248,78.77775,     -10.77981
819.848,78.83759,     -10.78089
820.448,78.89737,     -10.78187
821.048,78.95715,     -10.78286
821.648,79.01710,     -10.78372
822.248,79.07712,     -10.78459
822.848,79.13717,     -10.78569
823.448,79.19724,     -10.78677
824.048,79.25734,     -10.78742
824.648,79.31739,     -10.78809
825.248,79.37752,     -10.78898
825.848,79.43763,     -10.78975
826.448,79.49775,     -10.79093
827.048,79.55784,     -10.79190
827.648,79.61791,     -10.79295
828.248,79.67809,     -10.79393
828.848,79.73826,     -10.79521
829.448,79.79854,     -10.79529
830.048,79.85868,     -10.79657
830.648,79.91888,     -10.79743
831.248,79.97895,     -10.79850
831.848,80.03907,     -10.79958
832.448,80.09925,     -10.80065
833.048,80.15945,     -10.80162
833.648,80.21966,     -10.80259
834.248,80.27986,     -10.80345
834.848,80.34003,     -10.80473
835.448,80.40015,     -10.80600
836.048,80.46029,     -10.80716
836.648,80.52045,     -10.80824
837.248,80.58076,     -10.80941
837.848,80.64116,     -10.81068
838.448,80.70152,     -10.81185
839.048,80.76184,     -10.81281
839.648,80.82199,     -10.81391
840.248,80.88195,     -10.81518
840.848,80.94176,     -10.81652
841.448,81.00154,     -10.81768
842.048,81.06145,     -10.81863
842.648,81.12156,     -10.81981
843.248,81.18176,     -10.82099
843.848,81.24201,     -10.82217
844.448,81.30219,     -10.82353
845.048,81.36235,     -10.82449
845.648,81.42244,     -10.82566
846.248,81.48256,     -10.82673
846.848,81.54272,     -10.82779
847.448,81.60299,     -10.82895
848.048,81.66331,     -10.83001
848.648,81.72364,     -10.83108
849.248,81.78399,     -10.83233
849.848,81.84432,     -10.83350
850.448,81.90461,     -10.83457
851.048,81.96478,     -10.83544
851.648,82.02494,     -10.83660
852.248,82.08511,     -10.83747
852.848,82.14531,     -10.83865
853.448,82.20549,     -10.83942
854.048,82.26557,     -10.84068
854.648,82.32551,     -10.84163
855.248,82.38541,     -10.84279
855.848,82.44534,     -10.84364
856.448,82.50529,     -10.84491
857.048,82.56528,     -10.84578
857.648,82.62524,     -10.84704
858.248,82.68517,     -10.84810
858.848,82.74502,     -10.84906
859.448,82.80480,     -10.85022
860.048,82.86445,     -10.85149
860.648,82.92412,     -10.85235
861.248,82.98383,     -10.85341
861.848,83.04369,     -10.85417
862.448,83.10362,     -10.85504
863.048,83.16347,     -10.85619
863.648,83.22322,     -10.85695
864.248,83.28286,     -10.85792
864.848,83.34249,     -10.85909
865.448,83.40222,     -10.86016
866.048,83.46200,     -10.86092
866.648,83.52190,     -10.86177
867.248,83.58179,     -10.86262
867.848,83.64170,     -10.86368
868.448,83.70156,     -10.86464
869.048,83.76149,     -10.86550
869.648,83.82144,     -10.86646
870.248,83.88138,     -10.86722
870.848,83.94129,     -10.86777
871.448,84.00111,     -10.86883
872.048,84.06096,     -10.86992
872.648,84.12079,     -10.87081
873.248,84.18066,     -10.87166
873.848,84.24056,     -10.87278
874.448,84.30044,     -10.87327
875.048,84.36032,     -10.87414
875.648,84.42024,     -10.87508
876.248,84.48020,     -10.87605
876.848,84.54017,     -10.87708
877.448,84.60004,     -10.87815
878.048,84.65986,     -10.87890
878.648,84.71974,     -10.87995
879.248,84.77978,     -10.88091
879.848,84.83989,     -10.88189
880.448,84.89996,     -10.88275
881.048,84.95999,     -10.88340
881.648,85.01996,     -10.88417
882.248,85.08000,     -10.88463
882.848,85.13997,     -10.88538
883.448,85.19980,     -10.88654
884.048,85.25962,     -10.88751
884.648,85.31944,     -10.88827
885.248,85.37943,     -10.88903
885.848,85.43948,     -10.89009
886.448,85.49956,     -10.89105
887.048,85.55959,     -10.89200
887.648,85.61966,     -10.89296
888.248,85.67977,     -10.89402
888.848,85.73989,     -10.89488
889.448,85.80001,     -10.89534
890.048,85.86023,     -10.89600
890.648,85.92043,     -10.89676
891.248,85.98047,     -10.89762
891.848,86.04041,     -10.89842
892.448,86.10030,     -10.89904
893.048,86.16029,     -10.90012
893.648,86.22027,     -10.90107
894.248,86.28029,     -10.90236
894.848,86.34039,     -10.90340
895.448,86.40049,     -10.90445
896.048,86.46055,     -10.90521
896.648,86.52056,     -10.90587
897.248,86.58049,     -10.90664
897.848,86.64046,     -10.90770
898.448,86.70043,     -10.90876
899.048,86.76048,     -10.90973
899.248,86.78056,     -10.90984