File: data-raw/raw_biomass/LG1.csv
#EXPORTTYPE:                 ,DATA COMPARE
#FILE:                       ,LG.ngb-st9
#FORMAT:                     ,NETZSCH5
#FTYPE:                      ,ANSI
#IDENTITY:                   ,Saras
#DECIMAL:                    ,POINT
#SEPARATOR:                  ,COMMA
#MTYPE:                      ,TG
#INSTRUMENT:                 ,NETZSCH TG 209F1 Libra
#PROJECT:                    ,PM
#DATE/TIME:                  ,15/01/2018 10:13:45 AM (UTC+11)
#CORR. FILE:                 ,
#TEMPCAL:                    ,TCALZERO.TCX
#LABORATORY:                 ,Capture Lab
#OPERATOR:                   ,Frank
#REMARK:                     ,
#SAMPLE:                     ,LG
#SAMPLE MASS /mg:            ,17.9379
#MATERIAL:                   ,zeolite
#TYPE OF CRUCIBLE:           ,Al2O3
#SAMPLE CRUCIBLE MASS /mg:   ,167.6485
#REFERENCE CRUCIBLE MASS /mg:,
#M.RANGE /mg:                ,2000
#CORR. CODE:                 ,090
#RANGE:                      ,32°C/10.0(K/min)/900°C
#SEGMENT:                    ,S1/1
#SEG. 1:                     ,32°C/10.0(K/min)/900°C

##Temp./°C,Mass loss/mg
 31.19800,-1.446608e-003
 31.79800,-3.731262e-003
 32.39800,-4.425855e-003
 32.99800,-4.890731e-003
 33.59800,-5.116820e-003
 34.19800,-5.016816e-003
 34.79800,-5.136003e-003
 35.39800,-5.534623e-003
 35.99800,-5.867776e-003
 36.59800,-6.025290e-003
 37.19800,-6.497786e-003
 37.79800,-7.040498e-003
 38.39800,-7.240549e-003
 38.99800,-7.388852e-003
 39.59800,-7.862260e-003
 40.19800,-8.177099e-003
 40.79800,-8.543339e-003
 41.39800,-9.049513e-003
 41.99800,-9.700792e-003
 42.59800,-1.042647e-002
 43.19800,-1.108689e-002
 43.79800,-1.194754e-002
 44.39800,-1.287205e-002
 44.99800,-1.398373e-002
 45.59800,-1.560339e-002
 46.19800,-1.798418e-002
 46.79800,-2.031030e-002
 47.39800,-2.165568e-002
 47.99800,-2.301460e-002
 48.59800,-2.479904e-002
 49.19800,-2.787470e-002
 49.79800,-3.077991e-002
 50.39800,-3.326332e-002
 50.99800,-3.534832e-002
 51.59800,-3.709549e-002
 52.19800,-3.850090e-002
 52.79800,-4.137657e-002
 53.39800,-4.512853e-002
 53.99800,-4.819906e-002
 54.59800,-5.107624e-002
 55.19800,-5.411726e-002
 55.79800,-5.715386e-002
 56.39800,-6.011651e-002
 56.99800,-6.381500e-002
 57.59800,-6.753947e-002
 58.19800,-7.135023e-002
 58.79800,-7.516648e-002
 59.39800,-7.904846e-002
 59.99800,-8.259308e-002
 60.59800,-8.646578e-002
 61.19800,-9.019334e-002
 61.79800,-9.361517e-002
 62.39800,-9.724237e-002
 62.99800,      -0.10098
 63.59800,      -0.10486
 64.19800,      -0.10910
 64.79800,      -0.11355
 65.39800,      -0.11789
 65.99800,      -0.12237
 66.59800,      -0.12662
 67.19800,      -0.13063
 67.79800,      -0.13432
 68.39800,      -0.13856
 68.99800,      -0.14316
 69.59800,      -0.14812
 70.19800,      -0.15272
 70.79800,      -0.15734
 71.39800,      -0.16175
 71.99800,      -0.16632
 72.59800,      -0.17093
 73.19800,      -0.17546
 73.79800,      -0.17986
 74.39800,      -0.18425
 74.99800,      -0.18867
 75.59800,      -0.19330
 76.19800,      -0.19739
 76.79800,      -0.20135
 77.39800,      -0.20496
 77.99800,      -0.20974
 78.59800,      -0.21383
 79.19800,      -0.21870
 79.79800,      -0.22339
 80.39800,      -0.22736
 80.99800,      -0.23083
 81.59800,      -0.23423
 82.19800,      -0.23749
 82.79800,      -0.24100
 83.39800,      -0.24477
 83.99800,      -0.24844
 84.59800,      -0.25224
 85.19800,      -0.25562
 85.79800,      -0.25930
 86.39800,      -0.26267
 86.99800,      -0.26521
 87.59800,      -0.26703
 88.19800,      -0.26941
 88.79800,      -0.27307
 89.39800,      -0.27606
 89.99800,      -0.27917
 90.59800,      -0.28255
 91.19800,      -0.28533
 91.79800,      -0.28802
 92.39800,      -0.29061
 92.99800,      -0.29261
 93.59800,      -0.29380
 94.19800,      -0.29498
 94.79800,      -0.29673
 95.39800,      -0.29916
 95.99800,      -0.30108
 96.59800,      -0.30306
 97.19800,      -0.30544
 97.79800,      -0.30774
 98.39800,      -0.30996
 98.99800,      -0.31145
 99.59800,      -0.31273
100.198,      -0.31425
100.798,      -0.31564
101.398,      -0.31727
101.998,      -0.31878
102.598,      -0.32052
103.198,      -0.32179
103.798,      -0.32321
104.398,      -0.32486
104.998,      -0.32614
105.598,      -0.32763
106.198,      -0.32924
106.798,      -0.33088
107.398,      -0.33272
107.998,      -0.33454
108.598,      -0.33599
109.198,      -0.33750
109.798,      -0.33878
110.398,      -0.34028
110.998,      -0.34158
111.598,      -0.34304
112.198,      -0.34444
112.798,      -0.34592
113.398,      -0.34749
113.998,      -0.34917
114.598,      -0.35085
115.198,      -0.35235
115.798,      -0.35362
116.398,      -0.35531
116.998,      -0.35690
117.598,      -0.35885
118.198,      -0.36072
118.798,      -0.36239
119.398,      -0.36376
119.998,      -0.36523
120.598,      -0.36684
121.198,      -0.36822
121.798,      -0.37063
122.398,      -0.37329
122.998,      -0.37555
123.598,      -0.37773
124.198,      -0.37936
124.798,      -0.38163
125.398,      -0.38459
125.998,      -0.38694
126.598,      -0.38905
127.198,      -0.39067
127.798,      -0.39213
128.398,      -0.39375
128.998,      -0.39613
129.598,      -0.39846
130.198,      -0.40061
130.798,      -0.40365
131.398,      -0.40628
131.998,      -0.40903
132.598,      -0.41147
133.198,      -0.41382
133.798,      -0.41616
134.398,      -0.41859
134.998,      -0.42094
135.598,      -0.42297
136.198,      -0.42540
136.798,      -0.42805
137.398,      -0.43118
137.998,      -0.43384
138.598,      -0.43680
139.198,      -0.43969
139.798,      -0.44244
140.398,      -0.44536
140.998,      -0.44859
141.598,      -0.45152
142.198,      -0.45445
142.798,      -0.45788
143.398,      -0.46112
143.998,      -0.46422
144.598,      -0.46766
145.198,      -0.47106
145.798,      -0.47450
146.398,      -0.47794
146.998,      -0.48127
147.598,      -0.48479
148.198,      -0.48791
148.798,      -0.49101
149.398,      -0.49437
149.998,      -0.49739
150.598,      -0.50042
151.198,      -0.50452
151.798,      -0.50804
152.398,      -0.51117
152.998,      -0.51450
153.598,      -0.51851
154.198,      -0.52263
154.798,      -0.52624
155.398,      -0.52995
155.998,      -0.53317
156.598,      -0.53688
157.198,      -0.54025
157.798,      -0.54375
158.398,      -0.54718
158.998,      -0.55067
159.598,      -0.55404
160.198,      -0.55708
160.798,      -0.56182
161.398,      -0.56570
161.998,      -0.56933
162.598,      -0.57307
163.198,      -0.57604
163.798,      -0.57948
164.398,      -0.58249
164.998,      -0.58628
165.598,      -0.58991
166.198,      -0.59346
166.798,      -0.59666
167.398,      -0.60022
167.998,      -0.60309
168.598,      -0.60699
169.198,      -0.61022
169.798,      -0.61410
170.398,      -0.61803
170.998,      -0.62134
171.598,      -0.62515
172.198,      -0.62886
172.798,      -0.63217
173.398,      -0.63569
173.998,      -0.63943
174.598,      -0.64335
175.198,      -0.64687
175.798,      -0.65008
176.398,      -0.65364
176.998,      -0.65746
177.598,      -0.66139
178.198,      -0.66528
178.798,      -0.66925
179.398,      -0.67283
179.998,      -0.67666
180.598,      -0.68040
181.198,      -0.68389
181.798,      -0.68773
182.398,      -0.69133
182.998,      -0.69525
183.598,      -0.69957
184.198,      -0.70398
184.798,      -0.70778
185.398,      -0.71172
185.998,      -0.71561
186.598,      -0.72009
187.198,      -0.72445
187.798,      -0.72892
188.398,      -0.73316
188.998,      -0.73706
189.598,      -0.74131
190.198,      -0.74573
190.798,      -0.75025
191.398,      -0.75508
191.998,      -0.75991
192.598,      -0.76442
193.198,      -0.76922
193.798,      -0.77363
194.398,      -0.77818
194.998,      -0.78283
195.598,      -0.78751
196.198,      -0.79245
196.798,      -0.79749
197.398,      -0.80226
197.998,      -0.80749
198.598,      -0.81273
199.198,      -0.81808
199.798,      -0.82318
200.398,      -0.82862
200.998,      -0.83408
201.598,      -0.83932
202.198,      -0.84444
202.798,      -0.84965
203.398,      -0.85563
203.998,      -0.86137
204.598,      -0.86640
205.198,      -0.87220
205.798,      -0.87812
206.398,      -0.88405
206.998,      -0.89012
207.598,      -0.89652
208.198,      -0.90277
208.798,      -0.90961
209.398,      -0.91626
209.998,      -0.92250
210.598,      -0.92844
211.198,      -0.93398
211.798,      -0.93899
212.398,      -0.94476
212.998,      -0.95078
213.598,      -0.95721
214.198,      -0.96376
214.798,      -0.97017
215.398,      -0.97654
215.998,      -0.98246
216.598,      -0.98913
217.198,      -0.99586
217.798,      -1.00198
218.398,      -1.00887
218.998,      -1.01671
219.598,      -1.02383
220.198,      -1.03028
220.798,      -1.03553
221.398,      -1.04215
221.998,      -1.04909
222.598,      -1.05515
223.198,      -1.06102
223.798,      -1.06733
224.398,      -1.07409
224.998,      -1.08115
225.598,      -1.08868
226.198,      -1.09611
226.798,      -1.10266
227.398,      -1.10941
227.998,      -1.11626
228.598,      -1.12248
229.198,      -1.12824
229.798,      -1.13529
230.398,      -1.14331
230.998,      -1.15098
231.598,      -1.15907
232.198,      -1.16671
232.798,      -1.17440
233.398,      -1.18166
233.998,      -1.18917
234.598,      -1.19675
235.198,      -1.20395
235.798,      -1.21120
236.398,      -1.21927
236.998,      -1.22711
237.598,      -1.23503
238.198,      -1.24329
238.798,      -1.25192
239.398,      -1.26078
239.998,      -1.26991
240.598,      -1.27819
241.198,      -1.28552
241.798,      -1.29295
242.398,      -1.30070
242.998,      -1.30889
243.598,      -1.31767
244.198,      -1.32738
244.798,      -1.33705
245.398,      -1.34692
245.998,      -1.35617
246.598,      -1.36519
247.198,      -1.37405
247.798,      -1.38272
248.398,      -1.39206
248.998,      -1.40151
249.598,      -1.41147
250.198,      -1.42161
250.798,      -1.43158
251.398,      -1.44095
251.998,      -1.45048
252.598,      -1.46025
253.198,      -1.46968
253.798,      -1.47930
254.398,      -1.48953
254.998,      -1.50034
255.598,      -1.51047
256.198,      -1.52129
256.798,      -1.53186
257.398,      -1.54209
257.998,      -1.55204
258.598,      -1.56218
259.198,      -1.57283
259.798,      -1.58413
260.398,      -1.59497
260.998,      -1.60579
261.598,      -1.61666
262.198,      -1.62743
262.798,      -1.63844
263.398,      -1.64938
263.998,      -1.66014
264.598,      -1.67082
265.198,      -1.68278
265.798,      -1.69442
266.398,      -1.70482
266.998,      -1.71738
267.598,      -1.72919
268.198,      -1.74125
268.798,      -1.75311
269.398,      -1.76479
269.998,      -1.77613
270.598,      -1.78748
271.198,      -1.79857
271.798,      -1.80994
272.398,      -1.82139
272.998,      -1.83279
273.598,      -1.84467
274.198,      -1.85712
274.798,      -1.86916
275.398,      -1.88108
275.998,      -1.89342
276.598,      -1.90548
277.198,      -1.91763
277.798,      -1.92972
278.398,      -1.94198
278.998,      -1.95445
279.598,      -1.96665
280.198,      -1.97932
280.798,      -1.99147
281.398,      -2.00441
281.998,      -2.01724
282.598,      -2.03015
283.198,      -2.04323
283.798,      -2.05589
284.398,      -2.06842
284.998,      -2.08124
285.598,      -2.09439
286.198,      -2.10772
286.798,      -2.12083
287.398,      -2.13411
287.998,      -2.14703
288.598,      -2.16057
289.198,      -2.17334
289.798,      -2.18621
290.398,      -2.19933
290.998,      -2.21315
291.598,      -2.22767
292.198,      -2.24193
292.798,      -2.25560
293.398,      -2.26959
293.998,      -2.28395
294.598,      -2.29803
295.198,      -2.31193
295.798,      -2.32570
296.398,      -2.34003
296.998,      -2.35403
297.598,      -2.36838
298.198,      -2.38262
298.798,      -2.39708
299.398,      -2.41141
299.998,      -2.42594
300.598,      -2.44118
301.198,      -2.45593
301.798,      -2.47065
302.398,      -2.48545
302.998,      -2.50014
303.598,      -2.51417
304.198,      -2.52787
304.798,      -2.54242
305.398,      -2.55755
305.998,      -2.57222
306.598,      -2.58665
307.198,      -2.60231
307.798,      -2.61743
308.398,      -2.64467
308.998,      -2.65580
309.598,      -2.66834
310.198,      -2.68266
310.798,      -2.69792
311.398,      -2.71579
311.998,      -2.73588
312.598,      -2.74861
313.198,      -2.76282
313.798,      -2.78708
314.398,      -2.79910
314.998,      -2.81187
315.598,      -2.82780
316.198,      -2.84887
316.798,      -2.86065
317.398,      -2.87338
317.998,      -2.88870
318.598,      -2.91304
319.198,      -2.92565
319.798,      -2.94016
320.398,      -2.96468
320.998,      -2.97680
321.598,      -2.99117
322.198,      -3.00579
322.798,      -3.02899
323.398,      -3.04148
323.998,      -3.05535
324.598,      -3.08104
325.198,      -3.09251
325.798,      -3.10616
326.398,      -3.12053
326.998,      -3.14447
327.598,      -3.15667
328.198,      -3.16993
328.798,      -3.19634
329.398,      -3.20820
329.998,      -3.22170
330.598,      -3.25016
331.198,      -3.26109
331.798,      -3.27494
332.398,      -3.28964
332.998,      -3.31677
333.598,      -3.32820
334.198,      -3.34195
334.798,      -3.35628
335.398,      -3.38070
335.998,      -3.39257
336.598,      -3.40621
337.198,      -3.43308
337.798,      -3.44438
338.398,      -3.45761
338.998,      -3.47211
339.598,      -3.49635
340.198,      -3.50968
340.798,      -3.52407
341.398,      -3.54977
341.998,      -3.56179
342.598,      -3.57616
343.198,      -3.59924
343.798,      -3.61429
344.398,      -3.62742
344.998,      -3.65022
345.598,      -3.66625
346.198,      -3.67963
346.798,      -3.69357
347.398,      -3.71829
347.998,      -3.73054
348.598,      -3.74421
349.198,      -3.76863
349.798,      -3.78039
350.398,      -3.79389
350.998,      -3.81881
351.598,      -3.83112
352.198,      -3.84521
352.798,      -3.87203
353.398,      -3.88338
353.998,      -3.89696
354.598,      -3.91195
355.198,      -3.94248
355.798,      -3.95553
356.398,      -3.96824
356.998,      -3.98153
357.598,      -3.99633
358.198,      -4.02128
358.798,      -4.03439
359.398,      -4.04834
359.998,      -4.07462
360.598,      -4.08706
361.198,      -4.10214
361.798,      -4.12833
362.398,      -4.13894
362.998,      -4.15084
363.598,      -4.16522
364.198,      -4.19022
364.798,      -4.20195
365.398,      -4.21531
365.998,      -4.23308
366.598,      -4.25351
367.198,      -4.26663
367.798,      -4.28058
368.398,      -4.29505
368.998,      -4.31977
369.598,      -4.33129
370.198,      -4.34363
370.798,      -4.35733
371.398,      -4.37214
371.998,      -4.39759
372.598,      -4.40884
373.198,      -4.42277
373.798,      -4.43612
374.398,      -4.45061
374.998,      -4.46513
375.598,      -4.47909
376.198,      -4.49357
376.798,      -4.50843
377.398,      -4.52288
377.998,      -4.53738
378.598,      -4.55110
379.198,      -4.56462
379.798,      -4.57905
380.398,      -4.59401
380.998,      -4.60901
381.598,      -4.62345
382.198,      -4.63737
382.798,      -4.65209
383.398,      -4.67335
383.998,      -4.68229
384.598,      -4.69336
385.198,      -4.70680
385.798,      -4.72126
386.398,      -4.73539
386.998,      -4.74937
387.598,      -4.76371
388.198,      -4.77781
388.798,      -4.79225
389.398,      -4.80719
389.998,      -4.82193
390.598,      -4.84891
391.198,      -4.85825
391.798,      -4.87025
392.398,      -4.88323
392.998,      -4.89824
393.598,      -4.92141
394.198,      -4.93379
394.798,      -4.94706
395.398,      -4.96167
395.998,      -4.98475
396.598,      -4.99661
397.198,      -5.00943
397.798,      -5.03281
398.398,      -5.04902
398.998,      -5.06196
399.598,      -5.07615
400.198,      -5.10202
400.798,      -5.11147
401.398,      -5.12394
401.998,      -5.13829
402.598,      -5.16311
403.198,      -5.17673
403.798,      -5.20166
404.398,      -5.21304
404.998,      -5.22694
405.598,      -5.25320
406.198,      -5.26551
406.798,      -5.27958
407.398,      -5.30602
407.998,      -5.31812
408.598,      -5.33213
409.198,      -5.35806
409.798,      -5.36972
410.398,      -5.38342
410.998,      -5.41084
411.598,      -5.42307
412.198,      -5.43695
412.798,      -5.45118
413.398,      -5.48245
413.998,      -5.49407
414.598,      -5.50753
415.198,      -5.52405
415.798,      -5.54671
416.398,      -5.56008
416.998,      -5.57531
417.598,      -5.59887
418.198,      -5.61196
418.798,      -5.62601
419.398,      -5.65058
419.998,      -5.66353
420.598,      -5.67685
421.198,      -5.70371
421.798,      -5.71670
422.398,      -5.74143
422.998,      -5.75326
423.598,      -5.76737
424.198,      -5.78250
424.798,      -5.80542
425.398,      -5.81663
425.998,      -5.82994
426.598,      -5.85324
427.198,      -5.86820
427.798,      -5.88153
428.398,      -5.89644
428.998,      -5.92098
429.598,      -5.93330
430.198,      -5.94502
430.798,      -5.97070
431.398,      -5.98140
431.998,      -5.99440
432.598,      -6.00861
433.198,      -6.02383
433.798,      -6.04938
434.398,      -6.06125
434.998,      -6.07361
435.598,      -6.08731
436.198,      -6.11303
436.798,      -6.12290
437.398,      -6.13385
437.998,      -6.14461
438.598,      -6.17046
439.198,      -6.17976
439.798,      -6.19147
440.398,      -6.20425
440.998,      -6.21790
441.598,      -6.23207
442.198,      -6.24629
442.798,      -6.26056
443.398,      -6.28701
443.998,      -6.29741
444.598,      -6.30964
445.198,      -6.32230
445.798,      -6.33478
446.398,      -6.34744
446.998,      -6.36034
447.598,      -6.37334
448.198,      -6.38725
448.798,      -6.40028
449.398,      -6.41377
449.998,      -6.42684
450.598,      -6.44009
451.198,      -6.45413
451.798,      -6.46803
452.398,      -6.48132
452.998,      -6.49467
453.598,      -6.50751
454.198,      -6.52043
454.798,      -6.53222
455.398,      -6.54412
455.998,      -6.55617
456.598,      -6.57045
457.198,      -6.58465
457.798,      -6.59942
458.398,      -6.61311
458.998,      -6.62461
459.598,      -6.63609
460.198,      -6.65011
460.798,      -6.66440
461.398,      -6.67684
461.998,      -6.68955
462.598,      -6.70250
463.198,      -6.71449
463.798,      -6.72536
464.398,      -6.73651
464.998,      -6.74817
465.598,      -6.76098
466.198,      -6.77393
466.798,      -6.78670
467.398,      -6.79869
467.998,      -6.81155
468.598,      -6.82544
469.198,      -6.83713
469.798,      -6.84753
470.398,      -6.86001
470.998,      -6.87391
471.598,      -6.88836
472.198,      -6.90143
472.798,      -6.91344
473.398,      -6.92551
473.998,      -6.93773
474.598,      -6.94968
475.198,      -6.96170
475.798,      -6.97410
476.398,      -6.98778
476.998,      -7.00076
477.598,      -7.01234
478.198,      -7.02397
478.798,      -7.03601
479.398,      -7.04842
479.998,      -7.06107
480.598,      -7.07327
481.198,      -7.08554
481.798,      -7.09740
482.398,      -7.11042
482.998,      -7.12287
483.598,      -7.13536
484.198,      -7.14780
484.798,      -7.16079
485.398,      -7.17319
485.998,      -7.18556
486.598,      -7.19797
487.198,      -7.21019
487.798,      -7.22208
488.398,      -7.23452
488.998,      -7.24682
489.598,      -7.25878
490.198,      -7.27219
490.798,      -7.28527
491.398,      -7.29779
491.998,      -7.31018
492.598,      -7.32225
493.198,      -7.33454
493.798,      -7.34692
494.398,      -7.35944
494.998,      -7.37254
495.598,      -7.38672
496.198,      -7.39890
496.798,      -7.41096
497.398,      -7.42398
497.998,      -7.43635
498.598,      -7.44853
499.198,      -7.46091
499.798,      -7.47428
500.398,      -7.48791
500.998,      -7.50044
501.598,      -7.51255
502.198,      -7.52544
502.798,      -7.53882
503.398,      -7.55298
503.998,      -7.56587
504.598,      -7.57766
505.198,      -7.59054
505.798,      -7.60251
506.398,      -7.61449
506.998,      -7.62652
507.598,      -7.63941
508.198,      -7.65235
508.798,      -7.66581
509.398,      -7.67903
509.998,      -7.69171
510.598,      -7.70488
511.198,      -7.71721
511.798,      -7.72939
512.398,      -7.74214
512.998,      -7.75482
513.598,      -7.76749
514.198,      -7.78095
514.798,      -7.79372
515.398,      -7.80697
515.998,      -7.81956
516.598,      -7.83086
517.198,      -7.84278
517.798,      -7.85539
518.398,      -7.86816
518.998,      -7.88098
519.598,      -7.89302
520.198,      -7.90524
520.798,      -7.91729
521.398,      -7.92985
521.998,      -7.94251
522.598,      -7.95496
523.198,      -7.96752
523.798,      -7.97951
524.398,      -7.99140
524.998,      -8.00319
525.598,      -8.01464
526.198,      -8.02642
526.798,      -8.03852
527.398,      -8.05090
527.998,      -8.06296
528.598,      -8.07412
529.198,      -8.08499
529.798,      -8.09653
530.398,      -8.10809
530.998,      -8.11957
531.598,      -8.13114
532.198,      -8.14259
532.798,      -8.15399
533.398,      -8.16512
533.998,      -8.17691
534.598,      -8.18727
535.198,      -8.19794
535.798,      -8.20840
536.398,      -8.21900
536.998,      -8.22975
537.598,      -8.24120
538.198,      -8.25282
538.798,      -8.26384
539.398,      -8.27514
539.998,      -8.28510
540.598,      -8.29424
541.198,      -8.30490
541.798,      -8.31662
542.398,      -8.32846
542.998,      -8.33982
543.598,      -8.35009
544.198,      -8.36005
544.798,      -8.37044
545.398,      -8.38002
545.998,      -8.38922
546.598,      -8.39967
547.198,      -8.41052
547.798,      -8.42148
548.398,      -8.43227
548.998,      -8.44214
549.598,      -8.45142
550.198,      -8.46088
550.798,      -8.47125
551.398,      -8.48184
551.998,      -8.49225
552.598,      -8.50276
553.198,      -8.51321
553.798,      -8.52330
554.398,      -8.53412
554.998,      -8.54438
555.598,      -8.55505
556.198,      -8.56566
556.798,      -8.57514
557.398,     -17.82493
557.998,     -17.82647
558.598,     -17.82644
559.198,     -17.82628
559.798,     -17.82665
560.398,     -17.82765
560.998,     -17.82854
561.598,     -17.82936
562.198,     -17.83034
562.798,     -17.83262
563.398,     -17.83507
563.998,     -17.83642
564.598,     -17.83799
565.198,     -17.83914
565.798,     -17.84022
566.398,     -17.84068
566.998,     -17.84157
567.598,     -17.84263
568.198,     -17.84344
568.798,     -17.84450
569.398,     -17.84541
569.998,     -17.84638
570.598,     -17.84792
571.198,     -17.84999
571.798,     -17.85137
572.398,     -17.85183
572.998,     -17.85258
573.598,     -17.85356
574.198,     -17.85502
574.798,     -17.85818
575.398,     -17.86013
575.998,     -17.86088
576.598,     -17.86174
577.198,     -17.86291
577.798,     -17.86456
578.398,     -17.86712
578.998,     -17.86877
579.598,     -17.87101
580.198,     -17.87199
580.798,     -17.87285
581.398,     -17.87391
581.998,     -17.87526
582.598,     -17.87644
583.198,     -17.87739
583.798,     -17.87833
584.398,     -17.87967
584.998,     -17.88081
585.598,     -17.88161
586.198,     -17.88251
586.798,     -17.88332
587.398,     -17.88375
587.998,     -17.88617
588.598,     -17.88858
589.198,     -17.89025
589.798,     -17.89140
590.398,     -17.89256
590.998,     -17.89391
591.598,     -17.89446
592.198,     -17.89523
592.798,     -17.89587
593.398,     -17.89678
593.998,     -17.89800
594.598,     -17.89900
595.198,     -17.89999
595.798,     -17.90157
596.398,     -17.90304
596.998,     -17.90364
597.598,     -17.90430
598.198,     -17.90666
598.798,     -17.90867
599.398,     -17.91094
599.998,     -17.91208
600.598,     -17.91343
601.198,     -17.91500
601.798,     -17.91675
602.398,     -17.91819
602.998,     -17.91935
603.598,     -17.92000
604.198,     -17.92065
604.798,     -17.92150
605.398,     -17.92244
605.998,     -17.92369
606.598,     -17.92494
607.198,     -17.92629
607.798,     -17.92772
608.398,     -17.92906
608.998,     -17.93031
609.598,     -17.93138
610.198,     -17.93212
610.798,     -17.93289
611.398,     -17.93402
611.998,     -17.93538
612.598,     -17.93685
613.198,     -17.93849
613.798,     -17.93983
614.398,     -17.94098
614.998,     -17.94192
615.598,     -17.94298
616.198,     -17.94410
616.798,     -17.94535
617.398,     -17.94626
617.998,     -17.94730
618.598,     -17.94855
619.198,     -17.94980
619.798,     -17.95103
620.398,     -17.95188
620.998,     -17.95293
621.598,     -17.95356
622.198,     -17.95400
622.798,     -17.95475
623.398,     -17.95529
623.998,     -17.95624
624.598,     -17.95708
625.198,     -17.95812
625.798,     -17.95876
626.398,     -17.95940
626.998,     -17.96022
627.598,     -17.96078
628.198,     -17.96142
628.798,     -17.96195
629.398,     -17.96260
629.998,     -17.96355
630.598,     -17.96585
631.198,     -17.96831
631.798,     -17.96996
632.398,     -17.97100
632.998,     -17.97104
633.598,     -17.97038
634.198,     -17.97020
634.798,     -17.97115
635.398,     -17.97248
635.998,     -17.97423
636.598,     -17.97556
637.198,     -17.97672
637.798,     -17.97694
638.398,     -17.97708
638.998,     -17.97770
639.598,     -17.97935
640.198,     -17.98207
640.798,     -17.98413
641.398,     -17.98456
641.998,     -17.98410
642.598,     -17.98353
643.198,     -17.98327
643.798,     -17.98371
644.398,     -17.98504
644.998,     -17.98608
645.598,     -17.98641
646.198,     -17.98655
646.798,     -17.98648
647.398,     -17.98682
647.998,     -17.98728
648.598,     -17.98818
649.198,     -17.98923
649.798,     -17.99045
650.398,     -17.99139
650.998,     -17.99172
651.598,     -17.99195
652.198,     -17.99208
652.798,     -17.99232
653.398,     -17.99245
653.998,     -17.99228
654.598,     -17.99242
655.198,     -17.99255
655.798,     -17.99248
656.398,     -17.99271
656.998,     -17.99305
657.598,     -17.99348
658.198,     -17.99411
658.798,     -17.99455
659.398,     -17.99580
659.998,     -17.99721
660.598,     -17.99823
661.198,     -17.99856
661.798,     -17.99839
662.398,     -17.99812
662.998,     -17.99795
663.598,     -17.99768
664.198,     -17.99792
664.798,     -17.99835
665.398,     -17.99905
665.998,     -17.99950
666.598,     -17.99973
667.198,     -18.00006
667.798,     -18.00036
668.398,     -18.00002
668.998,     -18.00005
669.598,     -18.00018
670.198,     -18.00031
670.798,     -18.00064
671.398,     -18.00097
671.998,     -18.00079
672.598,     -18.00072
673.198,     -18.00094
673.798,     -18.00087
674.398,     -18.00110
674.998,     -18.00103
675.598,     -18.00126
676.198,     -18.00155
676.798,     -18.00191
677.398,     -18.00224
677.998,     -18.00227
678.598,     -18.00231
679.198,     -18.00243
679.798,     -18.00304
680.398,     -18.00376
680.998,     -18.00430
681.598,     -18.00503
682.198,     -18.00525
682.798,     -18.00658
683.398,     -18.00710
683.998,     -18.00723
684.598,     -18.00685
685.198,     -18.00637
685.798,     -18.00581
686.398,     -18.00523
686.998,     -18.00486
687.598,     -18.00490
688.198,     -18.00532
688.798,     -18.00661
689.398,     -18.00845
689.998,     -18.00847
690.598,     -18.00780
691.198,     -18.00733
691.798,     -18.00745
692.398,     -18.00748
692.998,     -18.00760
693.598,     -18.00793
694.198,     -18.00805
694.798,     -18.00818
695.398,     -18.00840
695.998,     -18.00842
696.598,     -18.00784
697.198,     -18.00764
697.798,     -18.00799
698.398,     -18.00832
698.998,     -18.00834
699.598,     -18.00871
700.198,     -18.00879
700.798,     -18.00930
701.398,     -18.01014
701.998,     -18.01074
702.598,     -18.01147
703.198,     -18.01209
703.798,     -18.01253
704.398,     -18.01295
704.998,     -18.01337
705.598,     -18.01310
706.198,     -18.01292
706.798,     -18.01284
707.398,     -18.01267
707.998,     -18.01239
708.598,     -18.01231
709.198,     -18.01244
709.798,     -18.01266
710.398,     -18.01268
710.998,     -18.01291
711.598,     -18.01283
712.198,     -18.01345
712.798,     -18.01427
713.398,     -18.01429
713.998,     -18.01351
714.598,     -18.01224
715.198,     -18.01209
715.798,     -18.01258
716.398,     -18.01370
716.998,     -18.01474
717.598,     -18.01545
718.198,     -18.01566
718.798,     -18.01569
719.398,     -18.01601
719.998,     -18.01614
720.598,     -18.01556
721.198,     -18.01488
721.798,     -18.01441
722.398,     -18.01462
722.998,     -18.01485
723.598,     -18.01533
724.198,     -18.01600
724.798,     -18.01682
725.398,     -18.01764
725.998,     -18.01765
726.598,     -18.01788
727.198,     -18.01828
727.798,     -18.01852
728.398,     -18.01833
728.998,     -18.01816
729.598,     -18.01778
730.198,     -18.01720
730.798,     -18.01710
731.398,     -18.01724
731.998,     -18.01716
732.598,     -18.01688
733.198,     -18.01670
733.798,     -18.01632
734.398,     -18.01654
734.998,     -18.01686
735.598,     -18.01708
736.198,     -18.01700
736.798,     -18.01691
737.398,     -18.01712
737.998,     -18.01802
738.598,     -18.01857
739.198,     -18.01859
739.798,     -18.01887
740.398,     -18.01913
740.998,     -18.01915
741.598,     -18.01926
742.198,     -18.01948
742.798,     -18.01950
743.398,     -18.02021
743.998,     -18.02013
744.598,     -18.01985
745.198,     -18.02037
745.798,     -18.02148
746.398,     -18.02170
746.998,     -18.02121
747.598,     -18.02062
748.198,     -18.02044
748.798,     -18.02056
749.398,     -18.02088
749.998,     -18.02069
750.598,     -18.02001
751.198,     -18.01942
751.798,     -18.01924
752.398,     -18.01950
752.998,     -18.02047
753.598,     -18.02158
754.198,     -18.02179
754.798,     -18.02120
755.398,     -18.02162
755.998,     -18.02193
756.598,     -18.02165
757.198,     -18.02136
757.798,     -18.02127
758.398,     -18.02118
758.998,     -18.02110
759.598,     -18.02121
760.198,     -18.02102
760.798,     -18.02093
761.398,     -18.02104
761.998,     -18.02095
762.598,     -18.02076
763.198,     -18.02057
763.798,     -18.02058
764.398,     -18.02069
764.998,     -18.02070
765.598,     -18.02031
766.198,     -18.01921
766.798,     -18.01853
767.398,     -18.01793
767.998,     -18.01815
768.598,     -18.01846
769.198,     -18.01857
769.798,     -18.01867
770.398,     -18.01930
770.998,     -18.02050
771.598,     -18.02110
772.198,     -18.02169
772.798,     -18.02271
773.398,     -18.02340
773.998,     -18.02381
774.598,     -18.02381
775.198,     -18.02392
775.798,     -18.02392
776.398,     -18.02383
776.998,     -18.02363
777.598,     -18.02344
778.198,     -18.02314
778.798,     -18.02274
779.398,     -18.02275
779.998,     -18.02255
780.598,     -18.02245
781.198,     -18.02235
781.798,     -18.02214
782.398,     -18.02225
782.998,     -18.02175
783.598,     -18.02205
784.198,     -18.02216
784.798,     -18.02212
785.398,     -18.02235
785.998,     -18.02265
786.598,     -18.02265
787.198,     -18.02245
787.798,     -18.02207
788.398,     -18.02155
788.998,     -18.02124
789.598,     -18.02104
790.198,     -18.02114
790.798,     -18.02143
791.398,     -18.02053
791.998,     -18.02022
792.598,     -18.02034
793.198,     -18.02081
793.798,     -18.02127
794.398,     -18.02140
794.998,     -18.02079
795.598,     -18.02049
796.198,     -18.02018
796.798,     -18.02086
797.398,     -18.02166
797.998,     -18.02175
798.598,     -18.02145
799.198,     -18.02114
799.798,     -18.02103
800.398,     -18.02122
800.998,     -18.02260
801.598,     -18.02420
802.198,     -18.02529
802.798,     -18.02547
803.398,     -18.02506
803.998,     -18.02393
804.598,     -18.02212
805.198,     -18.02172
805.798,     -18.02122
806.398,     -18.02052
806.998,     -18.01998
807.598,     -18.01966
808.198,     -18.01915
808.798,     -18.01873
809.398,     -18.01811
809.998,     -18.01770
810.598,     -18.01768
811.198,     -18.01786
811.798,     -18.01859
812.398,     -18.01903
812.998,     -18.01930
813.598,     -18.01998
814.198,     -18.02047
814.798,     -18.02025
815.398,     -18.02033
815.998,     -18.02112
816.598,     -18.02149
817.198,     -18.02167
817.798,     -18.02194
818.398,     -18.02192
818.998,     -18.02191
819.598,     -18.02178
820.198,     -18.02146
820.798,     -18.02094
821.398,     -18.02112
821.998,     -18.02079
822.598,     -18.02020
823.198,     -18.01954
823.798,     -18.01912
824.398,     -18.01899
824.998,     -18.01887
825.598,     -18.01874
826.198,     -18.01984
826.798,     -18.02099
827.398,     -18.02156
827.998,     -18.02204
828.598,     -18.02191
829.198,     -18.02118
829.798,     -18.01896
830.398,     -18.01684
830.998,     -18.01610
831.598,     -18.01587
832.198,     -18.01616
832.798,     -18.01601
833.398,     -18.01628
833.998,     -18.01706
834.598,     -18.01752
835.198,     -18.01779
835.798,     -18.01786
836.398,     -18.01783
836.998,     -18.01730
837.598,     -18.01657
838.198,     -18.01614
838.798,     -18.01623
839.398,     -18.01668
839.998,     -18.01704
840.598,     -18.01743
841.198,     -18.01797
841.798,     -18.01795
842.398,     -18.01812
842.998,     -18.01838
843.598,     -18.01815
844.198,     -18.01731
844.798,     -18.01638
845.398,     -18.01565
845.998,     -18.01491
846.598,     -18.01416
847.198,     -18.01324
847.798,     -18.01411
848.398,     -18.01448
848.998,     -18.01474
849.598,     -18.01441
850.198,     -18.01427
850.798,     -18.01384
851.398,     -18.01321
851.998,     -18.01296
852.598,     -18.01334
853.198,     -18.01379
853.798,     -18.01386
854.398,     -18.01367
854.998,     -18.01240
855.598,     -18.01194
856.198,     -18.01191
856.798,     -18.01207
857.398,     -18.01173
857.998,     -18.01141
858.598,     -18.01025
859.198,     -18.00942
859.798,     -18.00921
860.398,     -18.00960
860.998,     -18.00974
861.598,     -18.00977
862.198,     -18.01073
862.798,     -18.01009
863.398,     -18.00976
863.998,     -18.00920
864.598,     -18.00862
865.198,     -18.00864
865.798,     -18.00800
866.398,     -18.00776
866.998,     -18.00792
867.598,     -18.00808
868.198,     -18.00784
868.798,     -18.00760
869.398,     -18.00746
869.998,     -18.00772
870.598,     -18.00859
871.198,     -18.00893
871.798,     -18.00921
872.398,     -18.00967
872.998,     -18.01064
873.598,     -18.01140
874.198,     -18.01175
874.798,     -18.01141
875.398,     -18.01067
875.998,     -18.01003
876.598,     -18.00959
877.198,     -18.00945
877.798,     -18.00891
878.398,     -18.00937
878.998,     -18.00922
879.598,     -18.00859
880.198,     -18.00803
880.798,     -18.00741
881.398,     -18.00726
881.998,     -18.00783
882.598,     -18.00837
883.198,     -18.00913
883.798,     -18.00970
884.398,     -18.01007
884.998,     -18.01012
885.598,     -18.00967
886.198,     -18.00944
886.798,     -18.00938
887.398,     -18.00916
887.998,     -18.00902
888.598,     -18.00868
889.198,     -18.00824
889.798,     -18.00840
890.398,     -18.00846
890.998,     -18.00842
891.598,     -18.00828
892.198,     -18.00833
892.798,     -18.00870
893.398,     -18.00906
893.998,     -18.00912
894.598,     -18.00898
895.198,     -18.00874
895.798,     -18.00891
896.398,     -18.00956
896.998,     -18.00992
897.598,     -18.00958
898.198,     -18.00854
898.798,     -18.00711
899.398,     -18.00607