File: data-raw/raw_biomass/Mix1.csv
#EXPORTTYPE:                 ,DATA SINGLE
#FILE:                       ,Mix1.ngb-st9
#FORMAT:                     ,NETZSCH5
#FTYPE:                      ,ANSI
#IDENTITY:                   ,Saras
#DECIMAL:                    ,POINT
#SEPARATOR:                  ,COMMA
#MTYPE:                      ,TG
#INSTRUMENT:                 ,NETZSCH TG 209F1 Libra
#PROJECT:                    ,PM
#DATE/TIME:                  ,15/01/2018 4:09:11 PM (UTC+11)
#CORR. FILE:                 ,
#TEMPCAL:                    ,TCALZERO.TCX
#LABORATORY:                 ,Capture Lab
#OPERATOR:                   ,Frank
#REMARK:                     ,
#SAMPLE:                     ,Mix1
#SAMPLE MASS /mg:            ,18.0880
#MATERIAL:                   ,zeolite
#TYPE OF CRUCIBLE:           ,Al2O3
#SAMPLE CRUCIBLE MASS /mg:   ,167.8963
#REFERENCE CRUCIBLE MASS /mg:,
#M.RANGE /mg:                ,2000
#CORR. CODE:                 ,090
#RANGE:                      ,32°C/10.0(K/min)/900°C
#SEGMENT:                    ,S1/1
#SEG. 1:                     ,32°C/10.0(K/min)/900°C

##Temp./°C,Time/min,Mass loss/mg
 31.48800, 0.00000,-1.716635e-003
 32.08800, 0.17732,-5.317883e-003
 32.68800, 0.25929,-7.104153e-003
 33.28800, 0.33692,-8.742762e-003
 33.88800, 0.40779,-1.037833e-002
 34.48800, 0.47240,-1.221745e-002
 35.08800, 0.53285,-1.424783e-002
 35.68800, 0.59020,-1.653218e-002
 36.28800, 0.64498,-1.875836e-002
 36.88800, 0.69781,-2.056451e-002
 37.48800, 0.74918,-2.245524e-002
 38.08800, 0.79938,-2.488994e-002
 38.68800, 0.84873,-2.730706e-002
 39.28800, 0.89745,-2.968820e-002
 39.88800, 0.94577,-3.222444e-002
 40.48800, 0.99387,-3.487518e-002
 41.08800, 1.04193,-3.747049e-002
 41.68800, 1.09009,-4.054227e-002
 42.28800, 1.13841,-4.330810e-002
 42.88800, 1.18704,-4.687302e-002
 43.48800, 1.23605,-5.021908e-002
 44.08800, 1.28554,-5.384163e-002
 44.68800, 1.33560,-5.809154e-002
 45.28800, 1.38630,-6.244013e-002
 45.88800, 1.43765,-6.639892e-002
 46.48800, 1.48979,-7.051844e-002
 47.08800, 1.54278,-7.488243e-002
 47.68800, 1.59664,-7.913933e-002
 48.28800, 1.65137,-8.425226e-002
 48.88800, 1.70691,-8.930017e-002
 49.48800, 1.76327,-9.413857e-002
 50.08800, 1.82050,-9.963222e-002
 50.68800, 1.87852,      -0.10611
 51.28800, 1.93731,      -0.11301
 51.88800, 1.99681,      -0.11892
 52.48800, 2.05684,      -0.12526
 53.08800, 2.11747,      -0.13326
 53.68800, 2.17854,      -0.14157
 54.28800, 2.24002,      -0.14911
 54.88800, 2.30170,      -0.15659
 55.48800, 2.36352,      -0.16473
 56.08800, 2.42537,      -0.17293
 56.68800, 2.48723,      -0.18119
 57.28800, 2.54912,      -0.19003
 57.88800, 2.61092,      -0.19905
 58.48800, 2.67268,      -0.20778
 59.08800, 2.73434,      -0.21607
 59.68800, 2.79570,      -0.22444
 60.28800, 2.85685,      -0.23379
 60.88800, 2.91774,      -0.24250
 61.48800, 2.97847,      -0.25122
 62.08800, 3.03895,      -0.26020
 62.68800, 3.09925,      -0.26908
 63.28800, 3.15941,      -0.27833
 63.88800, 3.21950,      -0.28754
 64.48800, 3.27943,      -0.29689
 65.08800, 3.33929,      -0.30600
 65.68800, 3.39907,      -0.31525
 66.28800, 3.45885,      -0.32509
 66.88800, 3.51861,      -0.33491
 67.48800, 3.57833,      -0.34489
 68.08800, 3.63793,      -0.35551
 68.68800, 3.69740,      -0.36596
 69.28800, 3.75681,      -0.37641
 69.88800, 3.81628,      -0.38539
 70.48800, 3.87584,      -0.39466
 71.08800, 3.93542,      -0.40412
 71.68800, 3.99502,      -0.41374
 72.28800, 4.05463,      -0.42419
 72.88800, 4.11431,      -0.43543
 73.48800, 4.17397,      -0.44488
 74.08800, 4.23364,      -0.45372
 74.68800, 4.29333,      -0.46295
 75.28800, 4.35310,      -0.47323
 75.88800, 4.41285,      -0.48441
 76.48800, 4.47266,      -0.49524
 77.08800, 4.53248,      -0.50506
 77.68800, 4.59268,      -0.51455
 78.28800, 4.65304,      -0.52408
 78.88800, 4.71332,      -0.53367
 79.48800, 4.77330,      -0.54391
 80.08800, 4.83298,      -0.55355
 80.68800, 4.89266,      -0.56275
 81.28800, 4.95239,      -0.57166
 81.88800, 5.01205,      -0.58106
 82.48800, 5.07168,      -0.59058
 83.08800, 5.13128,      -0.60093
 83.68800, 5.19088,      -0.61093
 84.28800, 5.25048,      -0.61830
 84.88800, 5.31009,      -0.62658
 85.48800, 5.36975,      -0.63513
 86.08800, 5.42950,      -0.64443
 86.68800, 5.48926,      -0.65423
 87.28800, 5.54906,      -0.66366
 87.88800, 5.60882,      -0.67119
 88.48800, 5.66859,      -0.67846
 89.08800, 5.72841,      -0.68672
 89.68800, 5.78827,      -0.69617
 90.28800, 5.84815,      -0.70504
 90.88800, 5.90806,      -0.71344
 91.48800, 5.96805,      -0.72052
 92.08800, 6.02821,      -0.72990
 92.68800, 6.08887,      -0.73803
 93.28800, 6.14953,      -0.74549
 93.88800, 6.20999,      -0.75334
 94.48800, 6.26985,      -0.76076
 95.08800, 6.32942,      -0.76781
 95.68800, 6.38903,      -0.77551
 96.28800, 6.44878,      -0.78333
 96.88800, 6.50851,      -0.79061
 97.48800, 6.56821,      -0.79696
 98.08800, 6.62794,      -0.80284
 98.68800, 6.68781,      -0.80975
 99.28800, 6.74771,      -0.81682
 99.88800, 6.80765,      -0.82321
100.488, 6.86754,      -0.82943
101.088, 6.92736,      -0.83537
101.688, 6.98718,      -0.84148
102.288, 7.04706,      -0.84746
102.888, 7.10701,      -0.85364
103.488, 7.16704,      -0.86004
104.088, 7.22708,      -0.86606
104.688, 7.28711,      -0.87187
105.288, 7.34724,      -0.87752
105.888, 7.40732,      -0.88225
106.488, 7.46739,      -0.88784
107.088, 7.52743,      -0.89292
107.688, 7.58740,      -0.89790
108.288, 7.64748,      -0.90340
108.888, 7.70757,      -0.90859
109.488, 7.76768,      -0.91381
110.088, 7.82780,      -0.91846
110.688, 7.88782,      -0.92341
111.288, 7.94785,      -0.92820
111.888, 8.00785,      -0.93278
112.488, 8.06793,      -0.93778
113.088, 8.12803,      -0.94238
113.688, 8.18813,      -0.94717
114.288, 8.24826,      -0.95167
114.888, 8.30834,      -0.95616
115.488, 8.36838,      -0.96064
116.088, 8.42842,      -0.96543
116.688, 8.48850,      -0.96961
117.288, 8.54863,      -0.97358
117.888, 8.60875,      -0.97789
118.488, 8.66887,      -0.98223
119.088, 8.72899,      -0.98654
119.688, 8.78912,      -0.99060
120.288, 8.84914,      -0.99471
120.888, 8.90904,      -0.99891
121.488, 8.96889,      -1.00266
122.088, 9.02882,      -1.00745
122.688, 9.08887,      -1.01239
123.288, 9.14903,      -1.01732
123.888, 9.20920,      -1.02197
124.488, 9.26931,      -1.02752
125.088, 9.32940,      -1.03284
125.688, 9.38947,      -1.03771
126.288, 9.44953,      -1.04227
126.888, 9.50961,      -1.04713
127.488, 9.56961,      -1.05146
128.088, 9.62961,      -1.05534
128.688, 9.68963,      -1.06028
129.288, 9.74963,      -1.06579
129.888, 9.80960,      -1.07122
130.488, 9.86953,      -1.07634
131.088, 9.92951,      -1.08189
131.688, 9.98947,      -1.08706
132.288,10.04940,      -1.09200
132.888,10.10930,      -1.09674
133.488,10.16918,      -1.10146
134.088,10.22905,      -1.10680
134.688,10.28892,      -1.11171
135.288,10.34875,      -1.11658
135.888,10.40858,      -1.12128
136.488,10.46839,      -1.12580
137.088,10.52823,      -1.13063
137.688,10.58802,      -1.13554
138.288,10.64779,      -1.14041
138.888,10.70761,      -1.14533
139.488,10.76752,      -1.15057
140.088,10.82751,      -1.15579
140.688,10.88756,      -1.16049
141.288,10.94750,      -1.16525
141.888,11.00742,      -1.17012
142.488,11.06729,      -1.17382
143.088,11.12714,      -1.17786
143.688,11.18704,      -1.18140
144.288,11.24691,      -1.18532
144.888,11.30675,      -1.18914
145.488,11.36655,      -1.19285
146.088,11.42638,      -1.19596
146.688,11.48630,      -1.19943
147.288,11.54619,      -1.20335
147.888,11.60610,      -1.20704
148.488,11.66589,      -1.21086
149.088,11.72578,      -1.21461
149.688,11.78573,      -1.21813
150.288,11.84573,      -1.22165
150.888,11.90573,      -1.22566
151.488,11.96566,      -1.22979
152.088,12.02563,      -1.23260
152.688,12.08564,      -1.23515
153.288,12.14577,      -1.23838
153.888,12.20598,      -1.24233
154.488,12.26629,      -1.24590
155.088,12.32666,      -1.24937
155.688,12.38704,      -1.25231
156.288,12.44733,      -1.25580
156.888,12.50746,      -1.25997
157.488,12.56757,      -1.26416
158.088,12.62770,      -1.26826
158.688,12.68791,      -1.27232
159.288,12.74812,      -1.27638
159.888,12.80834,      -1.28042
160.488,12.86854,      -1.28474
161.088,12.92870,      -1.28897
161.688,12.98883,      -1.29314
162.288,13.04896,      -1.29768
162.888,13.10906,      -1.30212
163.488,13.16912,      -1.30680
164.088,13.22912,      -1.31137
164.688,13.28907,      -1.31578
165.288,13.34904,      -1.32028
165.888,13.40902,      -1.32528
166.488,13.46898,      -1.33031
167.088,13.52893,      -1.33462
167.688,13.58881,      -1.33923
168.288,13.64871,      -1.34397
168.888,13.70860,      -1.34966
169.488,13.76854,      -1.35558
170.088,13.82850,      -1.36120
170.688,13.88846,      -1.36671
171.288,13.94841,      -1.37161
171.888,14.00833,      -1.37642
172.488,14.06827,      -1.38103
173.088,14.12826,      -1.38694
173.688,14.18827,      -1.39375
174.288,14.24826,      -1.40117
174.888,14.30826,      -1.40679
175.488,14.36827,      -1.41310
176.088,14.42836,      -1.41962
176.688,14.48844,      -1.42645
177.288,14.54850,      -1.43367
177.888,14.60848,      -1.44088
178.488,14.66841,      -1.44779
179.088,14.72838,      -1.45491
179.688,14.78834,      -1.46242
180.288,14.84833,      -1.46954
180.888,14.90828,      -1.47675
181.488,14.96818,      -1.48376
182.088,15.02799,      -1.49077
182.688,15.08776,      -1.49800
183.288,15.14755,      -1.50543
183.888,15.20739,      -1.51327
184.488,15.26724,      -1.52047
185.088,15.32715,      -1.52690
185.688,15.38714,      -1.53483
186.288,15.44719,      -1.54407
186.888,15.50725,      -1.55311
187.488,15.56730,      -1.56205
188.088,15.62734,      -1.57068
188.688,15.68732,      -1.57937
189.288,15.74733,      -1.58766
189.888,15.80730,      -1.59650
190.488,15.86723,      -1.60492
191.088,15.92713,      -1.61284
191.688,15.98701,      -1.62106
192.288,16.04687,      -1.62989
192.888,16.10679,      -1.63892
193.488,16.16670,      -1.64773
194.088,16.22656,      -1.65665
194.688,16.28635,      -1.66557
195.288,16.34613,      -1.67452
195.888,16.40583,      -1.68304
196.488,16.46558,      -1.69182
197.088,16.52539,      -1.70095
197.688,16.58527,      -1.71028
198.288,16.64525,      -1.71974
198.888,16.70527,      -1.72898
199.488,16.76526,      -1.73800
200.088,16.82526,      -1.74665
200.688,16.88528,      -1.75549
201.288,16.94528,      -1.76492
201.888,17.00531,      -1.77436
202.488,17.06535,      -1.78372
203.088,17.12545,      -1.79349
203.688,17.18557,      -1.80251
204.288,17.24561,      -1.81154
204.888,17.30563,      -1.82049
205.488,17.36557,      -1.82943
206.088,17.42554,      -1.83877
206.688,17.48546,      -1.84823
207.288,17.54543,      -1.85744
207.888,17.60537,      -1.86660
208.488,17.66538,      -1.87563
209.088,17.72539,      -1.88466
209.688,17.78537,      -1.89361
210.288,17.84535,      -1.90284
210.888,17.90528,      -1.91185
211.488,17.96524,      -1.92050
212.088,18.02520,      -1.93010
212.688,18.08512,      -1.93913
213.288,18.14511,      -1.94807
213.888,18.20514,      -1.95661
214.488,18.26524,      -1.96536
215.088,18.32531,      -1.97450
215.688,18.38537,      -1.98383
216.288,18.44538,      -1.99298
216.888,18.50537,      -2.00148
217.488,18.56542,      -2.00994
218.088,18.62546,      -2.01879
218.688,18.68555,      -2.02776
219.288,18.74557,      -2.03661
219.888,18.80556,      -2.04526
220.488,18.86551,      -2.05410
221.088,18.92550,      -2.06232
221.688,18.98544,      -2.07086
222.288,19.04542,      -2.07940
222.888,19.10543,      -2.08774
223.488,19.16546,      -2.09678
224.088,19.22559,      -2.10653
224.688,19.28578,      -2.11606
225.288,19.34604,      -2.12577
225.888,19.40627,      -2.13520
226.488,19.46639,      -2.14481
227.088,19.52642,      -2.15326
227.688,19.58640,      -2.16150
228.288,19.64642,      -2.17045
228.888,19.70662,      -2.18074
229.488,19.76695,      -2.19263
230.088,19.82729,      -2.20406
230.688,19.88746,      -2.21381
231.288,19.94741,      -2.22220
231.888,20.00731,      -2.23065
232.488,20.06724,      -2.24057
233.088,20.12716,      -2.25079
233.688,20.18710,      -2.26091
234.288,20.24696,      -2.27112
234.888,20.30681,      -2.28191
235.488,20.36667,      -2.29194
236.088,20.42660,      -2.30137
236.688,20.48655,      -2.31130
237.288,20.54659,      -2.32225
237.888,20.60665,      -2.33311
238.488,20.66673,      -2.34367
239.088,20.72676,      -2.35401
239.688,20.78676,      -2.36456
240.288,20.84669,      -2.37569
240.888,20.90668,      -2.38684
241.488,20.96671,      -2.39829
242.088,21.02679,      -2.40974
242.688,21.08683,      -2.42120
243.288,21.14684,      -2.43275
243.888,21.20677,      -2.44488
244.488,21.26669,      -2.45711
245.088,21.32660,      -2.46993
245.688,21.38655,      -2.48146
246.288,21.44653,      -2.49380
246.888,21.50656,      -2.50686
247.488,21.56661,      -2.52001
248.088,21.62661,      -2.53286
248.688,21.68654,      -2.54518
249.288,21.74637,      -2.55753
249.888,21.80618,      -2.57008
250.488,21.86601,      -2.58313
251.088,21.92590,      -2.59616
251.688,21.98584,      -2.61035
252.288,22.04578,      -2.62458
252.888,22.10579,      -2.63952
253.488,22.16571,      -2.65497
254.088,22.22546,      -2.67010
254.688,22.28506,      -2.68378
255.288,22.34463,      -2.69797
255.888,22.40435,      -2.71293
256.488,22.46422,      -2.74119
257.088,22.52417,      -2.75295
257.688,22.58412,      -2.76686
258.288,22.64403,      -2.79141
258.888,22.70387,      -2.80269
259.488,22.76370,      -2.81674
260.088,22.82356,      -2.84565
260.688,22.88343,      -2.86401
261.288,22.94328,      -2.87692
261.888,23.00304,      -2.89182
262.488,23.06271,      -2.92155
263.088,23.12230,      -2.94075
263.688,23.18184,      -2.96088
264.288,23.24130,      -2.98160
264.888,23.30071,      -3.00423
265.488,23.36012,      -3.02517
266.088,23.41959,      -3.05090
266.688,23.47918,      -3.07378
267.288,23.53889,      -3.09933
267.888,23.59882,      -3.12717
268.488,23.65885,      -3.15409
269.088,23.71897,      -3.18271
269.688,23.77901,      -3.21144
270.288,23.83911,      -3.24028
270.888,23.89927,      -3.27278
271.488,23.95957,      -3.30538
272.088,24.01988,      -3.33831
272.688,24.08009,      -3.36857
273.288,24.14022,      -3.40145
273.888,24.20018,      -3.43457
274.488,24.26001,      -3.47065
275.088,24.31963,      -3.50524
275.688,24.37919,      -3.54128
276.288,24.43880,      -3.57969
276.888,24.49859,      -3.61971
277.488,24.55855,      -3.66014
278.088,24.61865,      -3.69988
278.688,24.67869,      -3.74145
279.288,24.73859,      -3.78398
279.888,24.79834,      -3.82771
280.488,24.85798,      -3.87289
281.088,24.91763,      -3.91715
281.688,24.97743,      -3.96124
282.288,25.03752,      -4.00795
282.888,25.09791,      -4.05176
283.488,25.15854,      -4.09873
284.088,25.21929,      -4.14056
284.688,25.28031,      -4.18831
285.288,25.34164,      -4.23232
285.888,25.40327,      -4.27724
286.488,25.46500,      -4.32251
287.088,25.52645,      -4.35986
287.688,25.58739,      -4.40019
288.288,25.64775,      -4.44297
288.888,25.70771,      -4.48260
289.488,25.76753,      -4.52194
290.088,25.82728,      -4.56556
290.688,25.88714,      -4.60285
291.288,25.94723,      -4.64498
291.888,26.00766,      -4.68137
292.488,26.06851,      -4.71690
293.088,26.12953,      -4.75242
293.688,26.19051,      -4.78873
294.288,26.25122,      -4.82260
294.888,26.31152,      -4.85700
295.488,26.37128,      -4.89057
296.088,26.43061,      -4.92670
296.688,26.48976,      -4.96050
297.288,26.54900,      -4.99528
297.888,26.60852,      -5.03494
298.488,26.66841,      -5.06942
299.088,26.72869,      -5.10340
299.688,26.78910,      -5.13835
300.288,26.84959,      -5.17379
300.888,26.90997,      -5.20790
301.488,26.97030,      -5.24143
302.088,27.03051,      -5.27435
302.688,27.09059,      -5.30695
303.288,27.15059,      -5.33769
303.888,27.21059,      -5.36712
304.488,27.27057,      -5.39622
305.088,27.33059,      -5.42414
305.688,27.39064,      -5.45072
306.288,27.45080,      -5.47681
306.888,27.51105,      -5.50114
307.488,27.57125,      -5.52428
308.088,27.63140,      -5.54604
308.688,27.69139,      -5.56707
309.288,27.75133,      -5.58679
309.888,27.81125,      -5.60632
310.488,27.87128,      -5.62823
311.088,27.93168,      -5.65644
311.688,27.99248,      -5.68079
312.288,28.05361,      -5.70224
312.888,28.11461,      -5.72160
313.488,28.17530,      -5.73419
314.088,28.23552,      -5.74761
314.688,28.29542,      -5.76104
315.288,28.35507,      -5.77486
315.888,28.41457,      -5.78890
316.488,28.47402,      -5.80301
317.088,28.53353,      -5.82728
317.688,28.59309,      -5.83850
318.288,28.65270,      -5.85001
318.888,28.71229,      -5.86273
319.488,28.77178,      -5.87648
320.088,28.83121,      -5.89024
320.688,28.89066,      -5.90404
321.288,28.95015,      -5.91798
321.888,29.00958,      -5.93217
322.488,29.06895,      -5.94456
323.088,29.12822,      -5.95770
323.688,29.18747,      -5.97174
324.288,29.24678,      -5.99681
324.888,29.30610,      -6.00779
325.488,29.36549,      -6.02027
326.088,29.42496,      -6.03397
326.688,29.48451,      -6.05353
327.288,29.54432,      -6.07073
327.888,29.60448,      -6.08897
328.488,29.66510,      -6.10693
329.088,29.72608,      -6.11981
329.688,29.78719,      -6.13361
330.288,29.84819,      -6.15758
330.888,29.90899,      -6.16925
331.488,29.96963,      -6.18272
332.088,30.03010,      -6.20920
332.688,30.09046,      -6.22073
333.288,30.15066,      -6.23396
333.888,30.21071,      -6.24742
334.488,30.27069,      -6.26201
335.088,30.33064,      -6.27624
335.688,30.39057,      -6.29080
336.288,30.45053,      -6.31719
336.888,30.51053,      -6.32774
337.488,30.57054,      -6.34007
338.088,30.63053,      -6.35330
338.688,30.69042,      -6.36712
339.288,30.75024,      -6.38096
339.888,30.80998,      -6.39454
340.488,30.86978,      -6.40909
341.088,30.92963,      -6.43329
341.688,30.98949,      -6.44530
342.288,31.04933,      -6.45856
342.888,31.10908,      -6.47209
343.488,31.16887,      -6.48664
344.088,31.22883,      -6.51297
344.688,31.28892,      -6.52390
345.288,31.34917,      -6.53610
345.888,31.40943,      -6.55085
346.488,31.46971,      -6.57798
347.088,31.52989,      -6.58885
347.688,31.58980,      -6.60145
348.288,31.64950,      -6.61469
348.888,31.70900,      -6.62882
349.488,31.76844,      -6.65390
350.088,31.82793,      -6.66455
350.688,31.88771,      -6.67880
351.288,31.94799,      -6.70401
351.888,32.00883,      -6.71490
352.488,32.07003,      -6.72823
353.088,32.13131,      -6.74330
353.688,32.19245,      -6.76774
354.288,32.25334,      -6.78100
354.888,32.31392,      -6.79622
355.488,32.37422,      -6.82000
356.088,32.43434,      -6.83224
356.688,32.49431,      -6.84534
357.288,32.55419,      -6.85917
357.888,32.61390,      -6.87354
358.488,32.67335,      -6.88706
359.088,32.73257,      -6.90145
359.688,32.79166,      -6.91539
360.288,32.85075,      -6.92888
360.888,32.91009,      -6.94287
361.488,32.96975,      -6.95714
362.088,33.02980,      -6.97784
362.688,33.09012,      -6.99474
363.288,33.15051,      -7.00710
363.888,33.21078,      -7.02014
364.488,33.27090,      -7.03485
365.088,33.33087,      -7.06021
365.688,33.39082,      -7.07063
366.288,33.45083,      -7.08324
366.888,33.51092,      -7.09689
367.488,33.57114,      -7.11106
368.088,33.63137,      -7.12957
368.688,33.69158,      -7.14842
369.288,33.75179,      -7.15968
369.888,33.81199,      -7.17202
370.488,33.87224,      -7.18554
371.088,33.93249,      -7.20012
371.688,33.99267,      -7.22343
372.288,34.05280,      -7.23343
372.888,34.11271,      -7.24567
373.488,34.17245,      -7.25898
374.088,34.23215,      -7.27281
374.688,34.29202,      -7.28666
375.288,34.35210,      -7.31244
375.888,34.41232,      -7.32239
376.488,34.47257,      -7.33458
377.088,34.53286,      -7.34804
377.688,34.59332,      -7.37463
378.288,34.65392,      -7.38614
378.888,34.71450,      -7.39839
379.488,34.77493,      -7.41425
380.088,34.83523,      -7.43944
380.688,34.89536,      -7.45066
381.288,34.95530,      -7.46326
381.888,35.01504,      -7.47705
382.488,35.07462,      -7.49069
383.088,35.13409,      -7.50547
383.688,35.19350,      -7.51972
384.288,35.25292,      -7.53364
384.888,35.31243,      -7.55930
385.488,35.37196,      -7.56791
386.088,35.43152,      -7.57841
386.688,35.49103,      -7.59024
387.288,35.55058,      -7.60357
387.888,35.61027,      -7.61658
388.488,35.67013,      -7.62974
389.088,35.73011,      -7.64345
389.688,35.79020,      -7.65779
390.288,35.85039,      -7.67062
390.888,35.91061,      -7.68510
391.488,35.97071,      -7.69864
392.088,36.03064,      -7.71140
392.688,36.09051,      -7.72383
393.288,36.15046,      -7.73684
393.888,36.21055,      -7.75015
394.488,36.27066,      -7.76273
395.088,36.33081,      -7.77505
395.688,36.39095,      -7.78696
396.288,36.45111,      -7.79969
396.888,36.51126,      -7.81210
397.488,36.57137,      -7.82369
398.088,36.63152,      -7.83574
398.688,36.69174,      -7.84850
399.288,36.75201,      -7.86094
399.888,36.81228,      -7.87303
400.488,36.87249,      -7.88463
401.088,36.93265,      -7.89647
401.688,36.99277,      -7.90754
402.288,37.05293,      -7.91869
402.888,37.11317,      -7.92989
403.488,37.17348,      -7.94096
404.088,37.23385,      -7.95279
404.688,37.29424,      -7.96507
405.288,37.35460,      -7.97536
405.888,37.41501,      -7.98798
406.488,37.47544,      -7.99990
407.088,37.53594,      -8.01086
407.688,37.59644,      -8.02127
408.288,37.65688,      -8.03215
408.888,37.71719,      -8.04343
409.488,37.77736,      -8.05350
410.088,37.83741,      -8.06331
410.688,37.89741,      -8.07313
411.288,37.95748,      -8.08342
411.888,38.01770,      -8.09411
412.488,38.07813,      -8.10499
413.088,38.13865,      -8.11682
413.688,38.19921,      -8.12851
414.288,38.25967,      -8.13967
414.888,38.31993,      -8.15003
415.488,38.37992,      -8.16033
416.088,38.43965,      -8.16970
416.688,38.49927,      -8.17829
417.288,38.55909,      -8.18794
417.888,38.61919,      -8.19763
418.488,38.67959,      -8.20732
419.088,38.74022,      -8.21692
419.688,38.80094,      -8.22720
420.288,38.86166,      -8.23807
420.888,38.92224,      -8.24856
421.488,38.98259,      -8.25911
422.088,39.04278,      -8.26959
422.688,39.10277,      -8.27959
423.288,39.16272,      -8.28897
423.888,39.22257,      -8.29837
424.488,39.28234,      -8.30698
425.088,39.34211,      -8.31550
425.688,39.40195,      -8.32490
426.288,39.46188,      -8.33470
426.888,39.52196,      -8.34399
427.488,39.58218,      -8.35300
428.088,39.64252,      -8.36217
428.688,39.70293,      -8.37168
429.288,39.76333,      -8.38028
429.888,39.82360,      -8.38860
430.488,39.88377,      -8.39690
431.088,39.94385,      -8.40519
431.688,40.00387,      -8.41379
432.288,40.06389,      -8.42278
432.888,40.12382,      -8.43169
433.488,40.18367,      -8.43994
434.088,40.24349,      -8.44779
434.688,40.30332,      -8.45655
435.288,40.36321,      -8.46564
435.888,40.42313,      -8.47453
436.488,40.48306,      -8.48333
437.088,40.54295,      -8.49183
437.688,40.60283,      -8.50021
438.288,40.66266,      -8.50884
438.888,40.72240,      -8.51735
439.488,40.78205,      -8.52542
440.088,40.84165,      -8.53272
440.688,40.90132,      -8.53970
441.288,40.96105,      -8.54752
441.888,41.02099,      -8.55546
442.488,41.08098,      -8.56462
443.088,41.14095,      -8.57328
443.688,41.20080,      -8.57990
444.288,41.26056,      -8.58685
444.888,41.32026,      -8.59544
445.488,41.38002,      -8.60339
446.088,41.43984,      -8.61077
446.688,41.49979,      -8.61904
447.288,41.55982,      -8.62734
447.888,41.61983,      -8.63455
448.488,41.67985,      -8.64164
449.088,41.73987,      -8.64904
449.688,41.79994,      -8.65605
450.288,41.86005,      -8.66336
450.888,41.92011,      -8.67156
451.488,41.98011,      -8.67997
452.088,42.04003,      -8.68663
452.688,42.09989,      -8.69341
453.288,42.15979,      -8.70040
453.888,42.21979,      -8.70679
454.488,42.27985,      -8.71419
455.088,42.33991,      -8.72208
455.688,42.39990,      -8.72847
456.288,42.45984,      -8.73456
456.888,42.51983,      -8.74095
457.488,42.58000,      -8.74786
458.088,42.64024,      -8.75618
458.688,42.70044,      -8.76456
459.288,42.76042,      -8.77154
459.888,42.82020,      -8.77614
460.488,42.87995,      -8.78011
461.088,42.93979,      -8.78558
461.688,42.99976,      -8.79187
462.288,43.06001,      -8.79879
462.888,43.12032,      -8.80642
463.488,43.18074,      -8.81380
464.088,43.24105,      -8.81943
464.688,43.30127,      -8.82599
465.288,43.36134,      -8.83291
465.888,43.42131,      -8.83979
466.488,43.48117,      -8.84568
467.088,43.54102,      -8.85189
467.688,43.60095,      -8.85835
468.288,43.66098,      -8.86534
468.888,43.72108,      -8.87096
469.488,43.78117,      -8.87594
470.088,43.84125,      -8.88167
470.688,43.90131,      -8.88767
471.288,43.96137,      -8.89328
471.888,44.02139,      -8.89886
472.488,44.08139,      -8.90435
473.088,44.14141,      -8.91024
473.688,44.20146,      -8.91623
474.288,44.26157,      -8.92125
474.888,44.32166,      -8.92655
475.488,44.38177,      -8.93154
476.088,44.44192,      -8.93765
476.688,44.50213,      -8.94482
477.288,44.56237,      -8.95260
477.888,44.62261,      -8.95845
478.488,44.68278,      -8.96341
479.088,44.74287,      -8.96855
479.688,44.80281,      -8.97463
480.288,44.86267,      -8.97982
480.888,44.92249,      -8.98400
481.488,44.98237,      -8.98861
482.088,45.04231,      -8.99166
482.688,45.10233,      -8.99506
483.288,45.16243,      -8.99976
483.888,45.22271,      -9.00470
484.488,45.28306,      -9.01080
485.088,45.34329,      -9.01670
485.688,45.40330,      -9.02228
486.288,45.46311,      -9.02695
486.888,45.52288,      -9.03062
487.488,45.58269,      -9.03314
488.088,45.64262,      -9.03679
488.688,45.70271,      -9.04199
489.288,45.76294,      -9.04716
489.888,45.82328,      -9.05216
490.488,45.88366,      -9.05698
491.088,45.94398,      -9.06214
491.688,46.00420,      -9.06747
492.288,46.06424,      -9.07263
492.888,46.12415,      -9.07707
493.488,46.18399,      -9.08177
494.088,46.24385,      -9.08595
494.688,46.30378,      -9.09012
495.288,46.36375,      -9.09460
495.888,46.42376,      -9.09850
496.488,46.48379,      -9.10219
497.088,46.54382,      -9.10594
497.688,46.60388,      -9.10963
498.288,46.66390,      -9.11370
498.888,46.72388,      -9.11742
499.488,46.78378,      -9.12091
500.088,46.84359,      -9.12427
500.688,46.90339,      -9.12703
501.288,46.96320,      -9.13050
501.888,47.02303,      -9.13368
502.488,47.08300,      -9.13591
503.088,47.14307,      -9.13931
503.688,47.20327,      -9.14392
504.288,47.26353,      -9.14933
504.888,47.32374,      -9.15278
505.488,47.38384,      -9.15689
506.088,47.44388,      -9.16076
506.688,47.50381,      -9.16393
507.288,47.56377,      -9.16752
507.888,47.62381,      -9.17165
508.488,47.68390,      -9.17605
509.088,47.74407,      -9.17978
509.688,47.80419,      -9.18277
510.288,47.86415,      -9.18555
510.888,47.92396,      -9.18801
511.488,47.98372,      -9.19074
512.088,48.04357,      -9.19373
512.688,48.10360,      -9.19692
513.288,48.16369,      -9.20059
513.888,48.22380,      -9.20336
514.488,48.28393,      -9.20563
515.088,48.34405,      -9.20894
515.688,48.40426,      -9.21241
516.288,48.46442,      -9.21641
516.888,48.52461,      -9.22107
517.488,48.58476,      -9.22599
518.088,48.64480,      -9.22949
518.688,48.70473,      -9.23126
519.288,48.76462,      -9.23409
519.888,48.82455,      -9.23768
520.488,48.88450,      -9.24075
521.088,48.94441,      -9.24328
521.688,49.00427,      -9.24534
522.288,49.06426,      -9.24772
522.888,49.12437,      -9.24991
523.488,49.18465,      -9.25517
524.088,49.24483,      -9.25966
524.688,49.30477,      -9.26222
525.288,49.36444,      -9.26337
525.888,49.42399,      -9.26381
526.488,49.48366,      -9.26467
527.088,49.54354,      -9.26655
527.688,49.60364,      -9.27004
528.288,49.66391,      -9.27425
528.888,49.72422,      -9.27867
529.488,49.78440,      -9.28187
530.088,49.84445,      -9.28381
530.688,49.90434,      -9.28698
531.288,49.96425,      -9.29056
531.888,50.02413,      -9.29344
532.488,50.08393,      -9.29533
533.088,50.14370,      -9.29647
533.688,50.20347,      -9.29834
534.288,50.26343,      -9.30052
534.888,50.32364,      -9.30380
535.488,50.38396,      -9.30780
536.088,50.44426,      -9.31081
536.688,50.50445,      -9.31348
537.288,50.56439,      -9.31672
537.888,50.62418,      -9.31970
538.488,50.68391,      -9.32116
539.088,50.74369,      -9.32415
539.688,50.80359,      -9.32727
540.288,50.86352,      -9.32975
540.888,50.92354,      -9.33263
541.488,50.98359,      -9.33569
542.088,51.04363,      -9.33857
542.688,51.10361,      -9.34093
543.288,51.16355,      -9.34301
543.888,51.22341,      -9.34507
544.488,51.28321,      -9.34634
545.088,51.34298,      -9.34781
545.688,51.40280,      -9.34958
546.288,51.46273,      -9.35164
546.888,51.52273,      -9.35430
547.488,51.58289,      -9.35760
548.088,51.64305,      -9.36074
548.688,51.70319,      -9.36463
549.288,51.76327,      -9.36729
549.888,51.82319,      -9.36976
550.488,51.88308,      -9.37173
551.088,51.94297,      -9.37458
551.688,52.00292,      -9.37861
552.288,52.06292,      -9.38100
552.888,52.12291,      -9.38398
553.488,52.18289,      -9.38687
554.088,52.24279,      -9.38835
554.688,52.30263,      -9.38961
555.288,52.36244,      -9.39098
555.888,52.42233,      -9.39304
556.488,52.48237,      -9.39571
557.088,52.54249,      -9.39858
557.688,52.60268,      -9.40127
558.288,52.66272,      -9.40378
558.888,52.72273,      -9.40634
559.488,52.78260,      -9.40916
560.088,52.84243,      -9.41184
560.688,52.90217,      -9.41369
561.288,52.96190,      -9.41474
561.888,53.02170,      -9.41600
562.488,53.08173,      -9.41806
563.088,53.14201,      -9.42083
563.688,53.20238,      -9.42400
564.288,53.26273,      -9.42716
564.888,53.32277,      -9.43074
565.488,53.38262,      -9.43280
566.088,53.44232,      -9.43493
566.688,53.50205,      -9.43761
567.288,53.56189,      -9.43987
567.888,53.62186,      -9.44155
568.488,53.68195,      -9.44373
569.088,53.74202,      -9.44610
569.688,53.80201,      -9.44796
570.288,53.86188,      -9.45010
570.888,53.92174,      -9.45186
571.488,53.98159,      -9.45402
572.088,54.04145,      -9.45687
572.688,54.10138,      -9.45900
573.288,54.16134,      -9.46127
573.888,54.22130,      -9.46375
574.488,54.28125,      -9.46623
575.088,54.34119,      -9.46833
575.688,54.40121,      -9.47100
576.288,54.46131,      -9.47378
576.888,54.52142,      -9.47697
577.488,54.58147,      -9.47952
578.088,54.64142,      -9.48149
578.688,54.70121,      -9.48374
579.288,54.76106,      -9.48551
579.888,54.82092,      -9.48684
580.488,54.88099,      -9.48872
581.088,54.94113,      -9.49250
581.688,55.00130,      -9.49650
582.288,55.06129,      -9.49846
582.888,55.12120,      -9.49998
583.488,55.18110,      -9.50118
584.088,55.24112,      -9.50271
584.688,55.30119,      -9.50538
585.288,55.36134,      -9.50876
585.888,55.42144,      -9.51212
586.488,55.48149,      -9.51489
587.088,55.54150,      -9.51665
587.688,55.60146,      -9.51801
588.288,55.66145,      -9.51976
588.888,55.72144,      -9.52181
589.488,55.78141,      -9.52416
590.088,55.84145,      -9.52702
590.688,55.90153,      -9.52928
591.288,55.96165,      -9.53114
591.888,56.02171,      -9.53349
592.488,56.08176,      -9.53595
593.088,56.14173,      -9.53780
593.688,56.20174,      -9.53946
594.288,56.26177,      -9.54181
594.888,56.32184,      -9.54477
595.488,56.38194,      -9.54784
596.088,56.44205,      -9.55108
596.688,56.50208,      -9.55384
597.288,56.56207,      -9.55561
597.888,56.62199,      -9.55764
598.488,56.68199,      -9.56089
599.088,56.74201,      -9.56297
599.688,56.80204,      -9.56618
600.288,56.86199,      -9.56845
600.888,56.92182,      -9.57027
601.488,56.98167,      -9.57182
602.088,57.04160,      -9.57397
602.688,57.10164,      -9.57682
603.288,57.16176,      -9.57978
603.888,57.22188,      -9.58225
604.488,57.28202,      -9.58439
605.088,57.34214,      -9.58635
605.688,57.40237,      -9.58905
606.288,57.46261,      -9.59198
606.888,57.52280,      -9.59445
607.488,57.58287,      -9.59709
608.088,57.64277,      -9.59903
608.688,57.70258,      -9.60081
609.288,57.76239,      -9.60265
609.888,57.82229,      -9.60541
610.488,57.88242,      -9.60703
611.088,57.94276,      -9.60888
611.688,58.00311,      -9.61263
612.288,58.06334,      -9.61479
612.888,58.12335,      -9.61624
613.488,58.18333,      -9.61798
614.088,58.24335,      -9.61933
614.688,58.30340,      -9.62317
615.288,58.36345,      -9.62632
615.888,58.42346,      -9.62816
616.488,58.48345,      -9.63041
617.088,58.54343,      -9.63274
617.688,58.60344,      -9.63519
618.288,58.66353,      -9.63605
618.888,58.72363,      -9.63871
619.488,58.78373,      -9.64104
620.088,58.84374,      -9.64361
620.688,58.90362,      -9.64544
621.288,58.96350,      -9.64726
621.888,59.02345,      -9.64980
622.488,59.08345,      -9.65234
623.088,59.14355,      -9.65368
623.688,59.20374,      -9.65502
624.288,59.26407,      -9.65666
624.888,59.32450,      -9.66001
625.488,59.38492,      -9.66414
626.088,59.44519,      -9.66840
626.688,59.50530,      -9.67136
627.288,59.56532,      -9.67368
627.888,59.62531,      -9.67531
628.488,59.68535,      -9.67655
629.088,59.74539,      -9.67819
629.688,59.80546,      -9.68235
630.288,59.86553,      -9.68537
630.888,59.92557,      -9.68827
631.488,59.98562,      -9.68874
632.088,60.04568,      -9.69027
632.688,60.10586,      -9.69338
633.288,60.16605,      -9.69720
633.888,60.22627,      -9.70018
634.488,60.28640,      -9.70154
635.088,60.34639,      -9.70228
635.688,60.40633,      -9.70289
636.288,60.46637,      -9.70545
636.888,60.52659,      -9.70959
637.488,60.58691,      -9.71425
638.088,60.64720,      -9.71786
638.688,60.70736,      -9.72099
639.288,60.76740,      -9.72403
639.888,60.82738,      -9.72617
640.488,60.88737,      -9.72751
641.088,60.94749,      -9.72975
641.688,61.00770,      -9.73250
642.288,61.06792,      -9.73542
642.888,61.12806,      -9.73743
643.488,61.18817,      -9.73878
644.088,61.24823,      -9.74033
644.688,61.30818,      -9.74167
645.288,61.36809,      -9.74230
645.888,61.42806,      -9.74304
646.488,61.48821,      -9.74496
647.088,61.54854,      -9.74952
647.688,61.60893,      -9.75456
648.288,61.66928,      -9.75935
648.888,61.72948,      -9.76280
649.488,61.78962,      -9.76403
650.088,61.84965,      -9.76522
650.688,61.90969,      -9.76778
651.288,61.96984,      -9.77132
651.888,62.03006,      -9.77578
652.488,62.09039,      -9.78021
653.088,62.15060,      -9.78294
653.688,62.21080,      -9.78426
654.288,62.27091,      -9.78711
654.888,62.33103,      -9.79083
655.488,62.39116,      -9.79385
656.088,62.45128,      -9.79658
656.688,62.51149,      -9.79942
657.288,62.57163,      -9.80146
657.888,62.63181,      -9.80270
658.488,62.69189,      -9.80404
659.088,62.75203,      -9.80587
659.688,62.81224,      -9.80762
660.288,62.87259,      -9.81029
660.888,62.93307,      -9.81393
661.488,62.99361,      -9.81728
662.088,63.05409,      -9.82162
662.688,63.11440,      -9.82526
663.288,63.17457,      -9.82847
663.888,63.23465,      -9.83197
664.488,63.29470,      -9.83609
665.088,63.35474,      -9.83905
665.688,63.41477,      -9.84257
666.288,63.47472,      -9.84572
666.888,63.53461,      -9.84645
667.488,63.59446,      -9.84608
668.088,63.65433,      -9.84641
668.688,63.71443,      -9.84704
669.288,63.77472,      -9.84805
669.888,63.83515,      -9.85182
670.488,63.89548,      -9.85708
671.088,63.95561,      -9.86116
671.688,64.01548,      -9.86463
672.288,64.07525,      -9.86773
672.888,64.13507,      -9.87043
673.488,64.19499,      -9.87356
674.088,64.25516,      -9.87669
674.688,64.31543,      -9.87991
675.288,64.37575,      -9.88275
675.888,64.43605,      -9.88466
676.488,64.49624,      -9.88781
677.088,64.55637,      -9.89131
677.688,64.61646,      -9.89514
678.288,64.67651,      -9.89699
678.888,64.73657,      -9.89831
679.488,64.79668,      -9.89994
680.088,64.85690,      -9.90286
680.688,64.91724,      -9.90712
681.288,64.97764,      -9.91183
681.888,65.03800,      -9.91493
682.488,65.09830,      -9.91827
683.088,65.15852,      -9.92151
683.688,65.21865,      -9.92442
684.288,65.27877,      -9.92757
684.888,65.33890,      -9.93048
685.488,65.39911,      -9.93339
686.088,65.45939,      -9.93719
686.688,65.51954,      -9.94101
687.288,65.57980,      -9.94386
687.888,65.64010,      -9.94691
688.488,65.70049,      -9.95035
689.088,65.76089,      -9.95406
689.688,65.82110,      -9.95708
690.288,65.88118,      -9.95971
690.888,65.94113,      -9.96230
691.488,66.00114,      -9.96609
692.088,66.06133,      -9.96976
692.688,66.12161,      -9.97249
693.288,66.18198,      -9.97483
693.888,66.24236,      -9.97776
694.488,66.30270,      -9.98116
695.088,66.36311,      -9.98479
695.688,66.42344,      -9.98833
696.288,66.48367,      -9.99195
696.888,66.54374,      -9.99479
697.488,66.60373,      -9.99738
698.088,66.66373,     -10.00062
698.688,66.72381,     -10.00303
699.288,66.78403,     -10.00568
699.888,66.84432,     -10.00886
700.488,66.90472,     -10.01240
701.088,66.96507,     -10.01633
701.688,67.02538,     -10.02066
702.288,67.08555,     -10.02488
702.888,67.14558,     -10.02879
703.488,67.20552,     -10.03233
704.088,67.26538,     -10.03573
704.688,67.32524,     -10.03857
705.288,67.38525,     -10.04089
705.888,67.44539,     -10.04375
706.488,67.50573,     -10.04736
707.088,67.56599,     -10.05115
707.688,67.62603,     -10.05448
708.288,67.68589,     -10.05621
708.888,67.74575,     -10.05855
709.488,67.80579,     -10.06256
710.088,67.86602,     -10.06706
710.688,67.92628,     -10.07130
711.288,67.98649,     -10.07501
711.888,68.04655,     -10.07803
712.488,68.10654,     -10.08126
713.088,68.16650,     -10.08548
713.688,68.22649,     -10.09078
714.288,68.28656,     -10.09522
714.888,68.34665,     -10.09895
715.488,68.40677,     -10.10248
716.088,68.46683,     -10.10561
716.688,68.52686,     -10.10823
717.288,68.58692,     -10.11096
717.888,68.64704,     -10.11386
718.488,68.70721,     -10.11729
719.088,68.76741,     -10.12090
719.688,68.82758,     -10.12500
720.288,68.88772,     -10.12892
720.888,68.94786,     -10.13243
721.488,69.00802,     -10.13617
722.088,69.06822,     -10.14012
722.688,69.12838,     -10.14395
723.288,69.18847,     -10.14679
723.888,69.24855,     -10.15030
724.488,69.30862,     -10.15372
725.088,69.36874,     -10.15647
725.688,69.42898,     -10.15978
726.288,69.48923,     -10.16363
726.888,69.54949,     -10.16741
727.488,69.60964,     -10.17090
728.088,69.66971,     -10.17421
728.688,69.72975,     -10.17785
729.288,69.78987,     -10.18167
729.888,69.85005,     -10.18660
730.488,69.91028,     -10.19116
731.088,69.97052,     -10.19429
731.688,70.03067,     -10.19813
732.288,70.09083,     -10.20138
732.888,70.15104,     -10.20518
733.488,70.21133,     -10.21011
734.088,70.27158,     -10.21394
734.688,70.33171,     -10.21676
735.288,70.39178,     -10.21988
735.888,70.45193,     -10.22353
736.488,70.51216,     -10.22839
737.088,70.57249,     -10.23273
737.688,70.63282,     -10.23664
738.288,70.69313,     -10.24147
738.888,70.75334,     -10.24539
739.488,70.81351,     -10.24862
740.088,70.87366,     -10.25193
740.688,70.93376,     -10.25561
741.288,70.99388,     -10.25918
741.888,71.05406,     -10.26299
742.488,71.11437,     -10.26698
743.088,71.17483,     -10.27111
743.688,71.23532,     -10.27516
744.288,71.29575,     -10.27848
744.888,71.35611,     -10.28154
745.488,71.41639,     -10.28487
746.088,71.47657,     -10.28779
746.688,71.53668,     -10.29121
747.288,71.59678,     -10.29403
747.888,71.65695,     -10.29678
748.488,71.71720,     -10.30072
749.088,71.77768,     -10.30466
749.688,71.83824,     -10.30969
750.288,71.89883,     -10.31593
750.888,71.95889,     -10.32234
751.488,72.01864,     -10.32614
752.088,72.07834,     -10.32844
752.688,72.13837,     -10.33116
753.288,72.19887,     -10.33443
753.888,72.25943,     -10.33877
754.488,72.31996,     -10.34301
755.088,72.38045,     -10.34713
755.688,72.44095,     -10.35056
756.288,72.50135,     -10.35551
756.888,72.56163,     -10.35986
757.488,72.62174,     -10.36378
758.088,72.68180,     -10.36768
758.688,72.74182,     -10.37130
759.288,72.80185,     -10.37451
759.888,72.86195,     -10.37751
760.488,72.92214,     -10.38128
761.088,72.98233,     -10.38476
761.688,73.04251,     -10.38795
762.288,73.10259,     -10.39259
762.888,73.16274,     -10.39834
763.488,73.22280,     -10.40343
764.088,73.28283,     -10.40651
764.688,73.34277,     -10.40951
765.288,73.40283,     -10.41231
765.888,73.46291,     -10.41521
766.488,73.52302,     -10.41841
767.088,73.58315,     -10.42203
767.688,73.64328,     -10.42664
768.288,73.70342,     -10.43196
768.888,73.76334,     -10.43676
769.488,73.82304,     -10.44074
770.088,73.88257,     -10.44368
770.688,73.94215,     -10.44715
771.288,74.00195,     -10.44990
771.888,74.06179,     -10.45371
772.488,74.12156,     -10.45689
773.088,74.18118,     -10.45938
773.688,74.24079,     -10.46302
774.288,74.30049,     -10.46636
774.888,74.36026,     -10.46975
775.488,74.42004,     -10.47382
776.088,74.47975,     -10.47571
776.688,74.53942,     -10.48113
777.288,74.59900,     -10.48502
777.888,74.65850,     -10.48884
778.488,74.71799,     -10.49211
779.088,74.77754,     -10.49366
779.688,74.83718,     -10.49496
780.288,74.89688,     -10.49655
780.888,74.95660,     -10.50004
781.488,75.01630,     -10.50440
782.088,75.07587,     -10.50825
782.688,75.13475,     -10.51195
783.288,75.19367,     -10.51598
783.888,75.25268,     -10.52054
784.488,75.31229,     -10.52465
785.088,75.37217,     -10.52816
785.688,75.43196,     -10.53117
786.288,75.49165,     -10.53385
786.888,75.55129,     -10.53555
787.488,75.61091,     -10.53701
788.088,75.67059,     -10.53917
788.688,75.73026,     -10.54246
789.288,75.79005,     -10.54604
789.888,75.84988,     -10.54933
790.488,75.90976,     -10.55143
791.088,75.96957,     -10.55457
791.688,76.02935,     -10.55719
792.288,76.08913,     -10.55883
792.888,76.14904,     -10.56170
793.488,76.20910,     -10.56600
794.088,76.26918,     -10.57032
794.688,76.32915,     -10.57251
795.288,76.38895,     -10.57400
795.888,76.44870,     -10.57649
796.488,76.50855,     -10.57858
797.088,76.56849,     -10.58118
797.688,76.62840,     -10.58396
798.288,76.68818,     -10.58675
798.888,76.74786,     -10.58923
799.488,76.80753,     -10.59142
800.088,76.86725,     -10.59301
800.688,76.92711,     -10.59492
801.288,76.98710,     -10.59692
801.888,77.04719,     -10.59862
802.488,77.10724,     -10.60048
803.088,77.16723,     -10.60310
803.688,77.22714,     -10.60578
804.288,77.28698,     -10.60887
804.888,77.34684,     -10.61164
805.488,77.40676,     -10.61412
806.088,77.46676,     -10.61561
806.688,77.52679,     -10.61691
807.288,77.58676,     -10.61847
807.888,77.64671,     -10.62036
808.488,77.70667,     -10.62274
809.088,77.76662,     -10.62432
809.688,77.82664,     -10.62591
810.288,77.88669,     -10.62720
810.888,77.94683,     -10.62878
811.488,78.00699,     -10.63057
812.088,78.06707,     -10.63276
812.688,78.12711,     -10.63432
813.288,78.18713,     -10.63658
813.888,78.24715,     -10.64096
814.488,78.30718,     -10.64459
815.088,78.36708,     -10.64591
815.688,78.42695,     -10.64704
816.288,78.48678,     -10.64870
816.888,78.54665,     -10.64928
817.488,78.60659,     -10.64995
818.088,78.66669,     -10.65154
818.688,78.72692,     -10.65344
819.288,78.78696,     -10.65691
819.888,78.84680,     -10.65958
820.488,78.90650,     -10.66065
821.088,78.96633,     -10.66193
821.688,79.02643,     -10.66450
822.288,79.08650,     -10.66618
822.888,79.14649,     -10.66645
823.488,79.20648,     -10.66673
824.088,79.26656,     -10.66790
824.688,79.32659,     -10.67168
825.288,79.38650,     -10.67436
825.888,79.44635,     -10.67543
826.488,79.50632,     -10.67637
827.088,79.56646,     -10.67768
827.688,79.62677,     -10.67926
828.288,79.68703,     -10.68083
828.888,79.74725,     -10.68313
829.488,79.80735,     -10.68602
830.088,79.86733,     -10.68878
830.688,79.92730,     -10.69042
831.288,79.98732,     -10.69178
831.888,80.04744,     -10.69256
832.488,80.10756,     -10.69354
833.088,80.16766,     -10.69446
833.688,80.22758,     -10.69497
834.288,80.28742,     -10.69554
834.888,80.34726,     -10.69570
835.488,80.40721,     -10.69617
836.088,80.46741,     -10.69804
836.688,80.52768,     -10.70122
837.288,80.58789,     -10.70598
837.888,80.64793,     -10.70985
838.488,80.70779,     -10.71182
839.088,80.76764,     -10.71290
839.688,80.82768,     -10.71529
840.288,80.88794,     -10.71721
840.888,80.94821,     -10.71939
841.488,81.00836,     -10.72127
842.088,81.06832,     -10.72264
842.688,81.12823,     -10.72419
843.288,81.18814,     -10.72547
843.888,81.24811,     -10.72593
844.488,81.30825,     -10.72660
845.088,81.36847,     -10.72697
845.688,81.42869,     -10.72807
846.288,81.48880,     -10.73052
846.888,81.54874,     -10.73319
847.488,81.60867,     -10.73516
848.088,81.66859,     -10.73771
848.688,81.72873,     -10.73957
849.288,81.78894,     -10.74241
849.888,81.84916,     -10.74648
850.488,81.90928,     -10.74965
851.088,81.96917,     -10.75251
851.688,82.02895,     -10.75368
852.288,82.08863,     -10.75395
852.888,82.14841,     -10.75351
853.488,82.20833,     -10.75348
854.088,82.26846,     -10.75356
854.688,82.32864,     -10.75612
855.288,82.38871,     -10.75849
855.888,82.44862,     -10.76024
856.488,82.50845,     -10.76240
857.088,82.56838,     -10.76535
857.688,82.62836,     -10.76702
858.288,82.68836,     -10.76708
858.888,82.74837,     -10.76704
859.488,82.80835,     -10.76741
860.088,82.86840,     -10.76887
860.688,82.92841,     -10.77163
861.288,82.98837,     -10.77509
861.888,83.04830,     -10.77825
862.488,83.10823,     -10.78101
863.088,83.16827,     -10.78288
863.688,83.22831,     -10.78354
864.288,83.28830,     -10.78440
864.888,83.34823,     -10.78576
865.488,83.40818,     -10.78751
866.088,83.46822,     -10.79008
866.688,83.52825,     -10.79324
867.288,83.58818,     -10.79630
867.888,83.64802,     -10.79855
868.488,83.70783,     -10.80044
869.088,83.76775,     -10.80178
869.688,83.82781,     -10.80285
870.288,83.88787,     -10.80441
870.888,83.94782,     -10.80708
871.488,84.00773,     -10.80943
872.088,84.06754,     -10.81136
872.688,84.12733,     -10.81365
873.288,84.18711,     -10.81570
873.888,84.24698,     -10.81697
874.488,84.30703,     -10.81864
875.088,84.36717,     -10.82098
875.688,84.42735,     -10.82369
876.288,84.48747,     -10.82596
876.888,84.54753,     -10.82777
877.488,84.60754,     -10.82873
878.088,84.66748,     -10.82984
878.688,84.72735,     -10.83199
879.288,84.78718,     -10.83456
879.888,84.84696,     -10.83727
880.488,84.90673,     -10.83993
881.088,84.96662,     -10.84269
881.688,85.02663,     -10.84495
882.288,85.08682,     -10.84731
882.888,85.14691,     -10.84907
883.488,85.20684,     -10.85062
884.088,85.26661,     -10.85258
884.688,85.32640,     -10.85510
885.288,85.38629,     -10.85690
885.888,85.44627,     -10.85878
886.488,85.50629,     -10.86013
887.088,85.56632,     -10.86159
887.688,85.62627,     -10.86265
888.288,85.68613,     -10.86411
888.888,85.74604,     -10.86665
889.488,85.80612,     -10.86919
890.088,85.86611,     -10.87106
890.688,85.92597,     -10.87363
891.288,85.98556,     -10.87603
891.888,86.04522,     -10.87837
892.488,86.10495,     -10.88062
893.088,86.16481,     -10.88297
893.688,86.22466,     -10.88523
894.288,86.28460,     -10.88774
894.888,86.34450,     -10.88939
895.488,86.40441,     -10.89066
896.088,86.46434,     -10.89191
896.688,86.52431,     -10.89337
897.288,86.58428,     -10.89493
897.888,86.64423,     -10.89732
898.488,86.70416,     -10.90008
899.088,86.76411,     -10.90279
899.388,86.79406,     -10.90429