File: data-raw/TGA/A_TGA.csv
#EXPORTTYPE:                 ,DATA SINGLE
#FILE:                       ,A.ngb-st9
#FORMAT:                     ,NETZSCH5
#FTYPE:                      ,ANSI
#IDENTITY:                   ,Saras
#DECIMAL:                    ,POINT
#SEPARATOR:                  ,COMMA
#MTYPE:                      ,TG
#INSTRUMENT:                 ,NETZSCH TG 209F1 Libra
#PROJECT:                    ,IL
#DATE/TIME:                  ,10/03/2017 11:19:17 AM (UTC+11)
#CORR. FILE:                 ,
#TEMPCAL:                    ,TCALZERO.TCX
#LABORATORY:                 ,Capture Lab
#OPERATOR:                   ,NJN
#REMARK:                     ,Training run
#SAMPLE:                     ,A
#SAMPLE MASS /mg:            ,18.9615
#MATERIAL:                   ,KHCO3
#TYPE OF CRUCIBLE:           ,Al2O3
#SAMPLE CRUCIBLE MASS /mg:   ,311.9048
#REFERENCE CRUCIBLE MASS /mg:,
#M.RANGE /mg:                ,2000
#CORR. CODE:                 ,090
#RANGE:                      ,32°C/10.0(K/min)/800°C
#SEGMENT:                    ,S1/1
#SEG. 1:                     ,32°C/10.0(K/min)/800°C

##Temp./°C,Time/min,Mass loss/mg
 31.45300, 0.00000,-9.310921e-004
 31.45100, 0.05167,-3.283845e-003
 31.51000, 0.10333,-5.244836e-003
 31.82300, 0.15500,-4.917945e-003
 32.22100, 0.20667,-4.711265e-003
 32.58800, 0.25833,-6.084292e-003
 32.96000, 0.31000,-7.569459e-003
 33.38700, 0.36167,-9.163889e-003
 33.86100, 0.41333,-1.077050e-002
 34.36000, 0.46500,-1.254074e-002
 34.88800, 0.51667,-1.461901e-002
 35.45000, 0.56833,-1.677812e-002
 36.03300, 0.62000,-1.905807e-002
 36.63700, 0.67167,-2.187722e-002
 37.26500, 0.72333,-2.519161e-002
 37.90100, 0.77500,-2.893814e-002
 38.55000, 0.82667,-3.288117e-002
 39.21000, 0.87833,-3.657845e-002
 39.86900, 0.93000,-4.034959e-002
 40.53100, 0.98167,-4.477401e-002
 41.19000, 1.03333,-4.862885e-002
 41.85000, 1.08500,-5.331859e-002
 42.49900, 1.13667,-5.732854e-002
 43.14500, 1.18833,-6.211091e-002
 43.77900, 1.24000,-6.693126e-002
 44.40100, 1.29167,-7.243217e-002
 45.01700, 1.34333,-7.820823e-002
 45.62000, 1.39500,-8.326765e-002
 46.21500, 1.44667,-8.942933e-002
 46.79700, 1.49833,-9.525079e-002
 47.36600, 1.55000,      -0.10180
 47.92400, 1.60167,      -0.10810
 48.48000, 1.65333,      -0.11485
 49.01500, 1.70500,      -0.12206
 49.54700, 1.75667,      -0.12892
 50.07400, 1.80833,      -0.13631
 50.59600, 1.86000,      -0.14344
 51.10500, 1.91167,      -0.15091
 51.61000, 1.96333,      -0.15862
 52.11100, 2.01500,      -0.16665
 52.61500, 2.06667,      -0.17422
 53.11300, 2.11833,      -0.18260
 53.60500, 2.17000,      -0.19097
 54.09900, 2.22167,      -0.19935
 54.59100, 2.27333,      -0.20798
 55.08600, 2.32500,      -0.21650
 55.57700, 2.37667,      -0.22540
 56.07500, 2.42833,      -0.23368
 56.57100, 2.48000,      -0.24312
 57.06800, 2.53167,      -0.25186
 57.56800, 2.58333,      -0.26172
 58.06800, 2.63500,      -0.27139
 58.56800, 2.68667,      -0.28034
 59.07700, 2.73833,      -0.29053
 59.58000, 2.79000,      -0.29998
 60.08900, 2.84167,      -0.31023
 60.59700, 2.89333,      -0.32001
 61.11200, 2.94500,      -0.33067
 61.62600, 2.99667,      -0.34043
 62.13900, 3.04833,      -0.35088
 62.65900, 3.10000,      -0.36186
 63.18000, 3.15167,      -0.37201
 63.69700, 3.20333,      -0.38305
 64.22000, 3.25500,      -0.39360
 64.74400, 3.30667,      -0.40475
 65.26500, 3.35833,      -0.41528
 65.78800, 3.41000,      -0.42661
 66.31200, 3.46167,      -0.43714
 66.83200, 3.51333,      -0.44865
 67.36000, 3.56500,      -0.45980
 67.87800, 3.61667,      -0.47088
 68.40400, 3.66833,      -0.48242
 68.92700, 3.72000,      -0.49332
 69.45200, 3.77167,      -0.50473
 69.97200, 3.82333,      -0.51573
 70.49400, 3.87500,      -0.52743
 71.01500, 3.92667,      -0.53773
 71.53900, 3.97833,      -0.54935
 72.06000, 4.03000,      -0.56085
 72.57500, 4.08167,      -0.57133
 73.09700, 4.13333,      -0.58284
 73.61700, 4.18500,      -0.59335
 74.13600, 4.23667,      -0.60425
 74.65500, 4.28833,      -0.61425
 75.17300, 4.34000,      -0.62525
 75.68900, 4.39167,      -0.63593
 76.21200, 4.44333,      -0.64716
 76.72800, 4.49500,      -0.65795
 77.24500, 4.54667,      -0.66764
 77.76200, 4.59833,      -0.67775
 78.28400, 4.65000,      -0.68736
 78.80300, 4.70167,      -0.69717
 79.31800, 4.75333,      -0.70675
 79.83600, 4.80500,      -0.71675
 80.35600, 4.85667,      -0.72674
 80.87400, 4.90833,      -0.73615
 81.38900, 4.96000,      -0.74535
 81.90900, 5.01167,      -0.75425
 82.42900, 5.06333,      -0.76365
 82.94400, 5.11500,      -0.77215
 83.46300, 5.16667,      -0.78095
 83.97800, 5.21833,      -0.78892
 84.49500, 5.27000,      -0.79742
 85.01500, 5.32167,      -0.80493
 85.52800, 5.37333,      -0.81341
 86.04900, 5.42500,      -0.82142
 86.56200, 5.47667,      -0.82869
 87.07900, 5.52833,      -0.83659
 87.59800, 5.58000,      -0.84370
 88.11500, 5.63167,      -0.85128
 88.63400, 5.68333,      -0.85819
 89.14700, 5.73500,      -0.86515
 89.66700, 5.78667,      -0.87167
 90.18500, 5.83833,      -0.87827
 90.70500, 5.89000,      -0.88477
 91.22300, 5.94167,      -0.89035
 91.74000, 5.99333,      -0.89636
 92.25600, 6.04500,      -0.90214
 92.77400, 6.09667,      -0.90783
 93.29400, 6.14833,      -0.91334
 93.81600, 6.20000,      -0.91874
 94.33400, 6.25167,      -0.92372
 94.85400, 6.30333,      -0.92932
 95.36600, 6.35500,      -0.93430
 95.89300, 6.40667,      -0.93911
 96.40700, 6.45833,      -0.94348
 96.92300, 6.51000,      -0.94756
 97.44200, 6.56167,      -0.95216
 97.95700, 6.61333,      -0.95644
 98.47300, 6.66500,      -0.96063
 98.98800, 6.71667,      -0.96421
 99.50700, 6.76833,      -0.96811
100.02, 6.82000,      -0.97169
100.539, 6.87167,      -0.97522
101.052, 6.92333,      -0.97872
101.568, 6.97500,      -0.98153
102.083, 7.02667,      -0.98475
102.597, 7.07833,      -0.98755
103.109, 7.13000,      -0.99075
103.628, 7.18167,      -0.99358
104.145, 7.23333,      -0.99629
104.657, 7.28500,      -0.99878
105.175, 7.33667,      -1.00119
105.689, 7.38833,      -1.00400
106.206, 7.44000,      -1.00650
106.721, 7.49167,      -1.00870
107.235, 7.54333,      -1.01050
107.75, 7.59500,      -1.01299
108.264, 7.64667,      -1.01509
108.786, 7.69833,      -1.01681
109.303, 7.75000,      -1.01820
109.817, 7.80167,      -1.01948
110.331, 7.85333,      -1.02077
110.846, 7.90500,      -1.02215
111.361, 7.95667,      -1.02356
111.881, 8.00833,      -1.02496
112.4, 8.06000,      -1.02645
112.916, 8.11167,      -1.02753
113.43, 8.16333,      -1.02871
113.944, 8.21500,      -1.02999
114.456, 8.26667,      -1.03095
114.975, 8.31833,      -1.03195
115.488, 8.37000,      -1.03293
116.007, 8.42167,      -1.03433
116.525, 8.47333,      -1.03561
117.037, 8.52500,      -1.03697
117.55, 8.57667,      -1.03824
118.069, 8.62833,      -1.03933
118.586, 8.68000,      -1.04000
119.097, 8.73167,      -1.04117
119.616, 8.78333,      -1.04215
120.131, 8.83500,      -1.04292
120.651, 8.88667,      -1.04389
121.166, 8.93833,      -1.04477
121.685, 8.99000,      -1.04584
122.2, 9.04167,      -1.04681
122.716, 9.09333,      -1.04797
123.234, 9.14500,      -1.04894
123.747, 9.19667,      -1.04950
124.262, 9.24833,      -1.05016
124.777, 9.30000,      -1.05091
125.291, 9.35167,      -1.05177
125.808, 9.40333,      -1.05274
126.326, 9.45500,      -1.05350
126.842, 9.50667,      -1.05437
127.36, 9.55833,      -1.05543
127.878, 9.61000,      -1.05659
128.397, 9.66167,      -1.05766
128.916, 9.71333,      -1.05831
129.431, 9.76500,      -1.05926
129.95, 9.81667,      -1.06043
130.467, 9.86833,      -1.06108
130.985, 9.92000,      -1.06204
131.501, 9.97167,      -1.06288
132.02,10.02333,      -1.06374
132.536,10.07500,      -1.06468
133.051,10.12667,      -1.06573
133.567,10.17833,      -1.06688
134.084,10.23000,      -1.06803
134.599,10.28167,      -1.06927
135.117,10.33333,      -1.07042
135.632,10.38500,      -1.07147
136.149,10.43667,      -1.07241
136.666,10.48833,      -1.07347
137.184,10.54000,      -1.07451
137.698,10.59167,      -1.07586
138.22,10.64333,      -1.07721
138.734,10.69500,      -1.07824
139.254,10.74667,      -1.07959
139.769,10.79833,      -1.08103
140.289,10.85000,      -1.08268
140.806,10.90167,      -1.08501
141.322,10.95333,      -1.08695
141.838,11.00500,      -1.08838
142.356,11.05667,      -1.08983
142.877,11.10833,      -1.09118
143.391,11.16000,      -1.09231
143.908,11.21167,      -1.09364
144.423,11.26333,      -1.09508
144.943,11.31500,      -1.09732
145.459,11.36667,      -1.09985
145.974,11.41833,      -1.10188
146.492,11.47000,      -1.10342
147.005,11.52167,      -1.10525
147.523,11.57333,      -1.10719
148.038,11.62500,      -1.10912
148.552,11.67667,      -1.11135
149.068,11.72833,      -1.11329
149.588,11.78000,      -1.11532
150.103,11.83167,      -1.11696
150.621,11.88333,      -1.11919
151.14,11.93500,      -1.12123
151.657,11.98667,      -1.12316
152.175,12.03833,      -1.12549
152.689,12.09000,      -1.12762
153.206,12.14167,      -1.12995
153.725,12.19333,      -1.13198
154.239,12.24500,      -1.13431
154.757,12.29667,      -1.13674
155.275,12.34833,      -1.13907
155.793,12.40000,      -1.14160
156.308,12.45167,      -1.14392
156.824,12.50333,      -1.14675
157.341,12.55500,      -1.14878
157.858,12.60667,      -1.15081
158.377,12.65833,      -1.15314
158.891,12.71000,      -1.15567
159.404,12.76167,      -1.15789
159.924,12.81333,      -1.15992
160.446,12.86500,      -1.16226
160.961,12.91667,      -1.16468
161.473,12.96833,      -1.16690
161.992,13.02000,      -1.16923
162.509,13.07167,      -1.17176
163.028,13.12333,      -1.17409
163.543,13.17500,      -1.17681
164.063,13.22667,      -1.17884
164.577,13.27833,      -1.18136
165.097,13.33000,      -1.18379
165.612,13.38167,      -1.18622
166.127,13.43333,      -1.18864
166.643,13.48500,      -1.19106
167.158,13.53667,      -1.19379
167.676,13.58833,      -1.19622
168.192,13.64000,      -1.19864
168.709,13.69167,      -1.20117
169.224,13.74333,      -1.20349
169.736,13.79500,      -1.20592
170.255,13.84667,      -1.20844
170.773,13.89833,      -1.21128
171.291,13.95000,      -1.21371
171.804,14.00167,      -1.21623
172.319,14.05333,      -1.21875
172.84,14.10500,      -1.22149
173.354,14.15667,      -1.22421
173.872,14.20833,      -1.22684
174.389,14.26000,      -1.22956
174.905,14.31167,      -1.23219
175.423,14.36333,      -1.23492
175.939,14.41500,      -1.23774
176.456,14.46667,      -1.24107
176.972,14.51833,      -1.24389
177.491,14.57000,      -1.24713
178.006,14.62167,      -1.25056
178.521,14.67333,      -1.25348
179.039,14.72500,      -1.25681
179.552,14.77667,      -1.25983
180.071,14.82833,      -1.26307
180.588,14.88000,      -1.26610
181.103,14.93167,      -1.26942
181.621,14.98333,      -1.27285
182.14,15.03500,      -1.27649
182.656,15.08667,      -1.28022
183.172,15.13833,      -1.28385
183.689,15.19000,      -1.28768
184.207,15.24167,      -1.29121
184.727,15.29333,      -1.29504
185.243,15.34500,      -1.29857
185.758,15.39667,      -1.30280
186.276,15.44833,      -1.30674
186.794,15.50000,      -1.31037
187.308,15.55167,      -1.31480
187.826,15.60333,      -1.31913
188.344,15.65500,      -1.32367
188.861,15.70667,      -1.32810
189.374,15.75833,      -1.33293
189.893,15.81000,      -1.33737
190.413,15.86167,      -1.34221
190.927,15.91333,      -1.34674
191.443,15.96500,      -1.35128
191.96,16.01667,      -1.35621
192.478,16.06833,      -1.36085
192.997,16.12000,      -1.36599
193.513,16.17167,      -1.37093
194.028,16.22333,      -1.37667
194.547,16.27500,      -1.38181
195.062,16.32667,      -1.38754
195.576,16.37833,      -1.39258
196.096,16.43000,      -1.39812
196.611,16.48167,      -1.40397
197.128,16.53333,      -1.40981
197.642,16.58500,      -1.41585
198.16,16.63667,      -1.42140
198.679,16.68833,      -1.42794
199.194,16.74000,      -1.43429
199.71,16.79167,      -1.44023
200.228,16.84333,      -1.44628
200.743,16.89500,      -1.45292
201.26,16.94667,      -1.45947
201.782,16.99833,      -1.46562
202.297,17.05000,      -1.47226
202.815,17.10167,      -1.47891
203.33,17.15333,      -1.48565
203.845,17.20500,      -1.49210
204.361,17.25667,      -1.49884
204.877,17.30833,      -1.50549
205.391,17.36000,      -1.51273
205.91,17.41167,      -1.51969
206.428,17.46333,      -1.52643
206.942,17.51500,      -1.53358
207.459,17.56667,      -1.54033
207.976,17.61833,      -1.54798
208.495,17.67000,      -1.55493
209.014,17.72167,      -1.56267
209.53,17.77333,      -1.56972
210.047,17.82500,      -1.57717
210.563,17.87667,      -1.58502
211.081,17.92833,      -1.59237
211.596,17.98000,      -1.60031
212.113,18.03167,      -1.60756
212.632,18.08333,      -1.61552
213.147,18.13500,      -1.62276
213.665,18.18667,      -1.63041
214.178,18.23833,      -1.63856
214.694,18.29000,      -1.64670
215.207,18.34167,      -1.65545
215.72,18.39333,      -1.66340
216.241,18.44500,      -1.67166
216.757,18.49667,      -1.67991
217.274,18.54833,      -1.68846
217.791,18.60000,      -1.69691
218.307,18.65167,      -1.70586
218.825,18.70333,      -1.71431
219.345,18.75500,      -1.72376
219.859,18.80667,      -1.73321
220.376,18.85833,      -1.74226
220.891,18.91000,      -1.75211
221.411,18.96167,      -1.76116
221.927,19.01333,      -1.77151
222.445,19.06500,      -1.78076
222.963,19.11667,      -1.79121
223.481,19.16833,      -1.80096
223.995,19.22000,      -1.81181
224.513,19.27167,      -1.82266
225.029,19.32333,      -1.83281
225.549,19.37500,      -1.84447
226.066,19.42667,      -1.85512
226.579,19.47833,      -1.86697
227.096,19.53000,      -1.87862
227.611,19.58167,      -1.89097
228.129,19.63333,      -1.90332
228.644,19.68500,      -1.91647
229.16,19.73667,      -1.92972
229.677,19.78833,      -1.94228
230.196,19.84000,      -1.97013
230.714,19.89167,      -1.97958
231.231,19.94333,      -1.99143
231.749,19.99500,      -2.00439
232.262,20.04667,      -2.02753
232.782,20.09833,      -2.03959
233.297,20.15000,      -2.06174
233.814,20.20167,      -2.07399
234.329,20.25333,      -2.09894
234.847,20.30500,      -2.11719
235.363,20.35667,      -2.13485
235.884,20.40833,      -2.15450
236.4,20.46000,      -2.17345
236.92,20.51167,      -2.19470
237.436,20.56333,      -2.21406
237.954,20.61500,      -2.23551
238.469,20.66667,      -2.25826
238.986,20.71833,      -2.27991
239.5,20.77000,      -2.30296
240.015,20.82167,      -2.32591
240.53,20.87333,      -2.35076
241.049,20.92500,      -2.37432
241.565,20.97667,      -2.40077
242.082,21.02833,      -2.42662
242.599,21.08000,      -2.45408
243.117,21.13167,      -2.48303
243.634,21.18333,      -2.51008
244.146,21.23500,      -2.54043
244.667,21.28667,      -2.56988
245.177,21.33833,      -2.60133
245.697,21.39000,      -2.63159
246.212,21.44167,      -2.66484
246.731,21.49333,      -2.69569
247.248,21.54500,      -2.73175
247.767,21.59667,      -2.76670
248.283,21.64833,      -2.80055
248.802,21.70000,      -2.83810
249.318,21.75167,      -2.87326
249.837,21.80333,      -2.91221
250.355,21.85500,      -2.94866
250.87,21.90667,      -2.98871
251.387,21.95833,      -3.02716
251.905,22.01000,      -3.06911
252.419,22.06167,      -3.11116
252.932,22.11333,      -3.15142
253.451,22.16500,      -3.19517
253.966,22.21667,      -3.23662
254.485,22.26833,      -3.28177
255.001,22.32000,      -3.32392
255.516,22.37167,      -3.37028
256.033,22.42333,      -3.41623
256.549,22.47500,      -3.45978
257.064,22.52667,      -3.50753
257.583,22.57833,      -3.55298
258.095,22.63000,      -3.60093
258.612,22.68167,      -3.64608
259.127,22.73333,      -3.69454
259.641,22.78500,      -3.74079
260.153,22.83667,      -3.78984
260.669,22.88833,      -3.83979
261.186,22.94000,      -3.88644
261.702,22.99167,      -3.93609
262.218,23.04333,      -3.98284
262.734,23.09500,      -4.03269
263.25,23.14667,      -4.07954
263.765,23.19833,      -4.12910
264.282,23.25000,      -4.17555
264.797,23.30167,      -4.22530
265.316,23.35333,      -4.27395
265.829,23.40500,      -4.32070
266.345,23.45667,      -4.37015
266.86,23.50833,      -4.41680
267.374,23.56000,      -4.46575
267.892,23.61167,      -4.51170
268.411,23.66333,      -4.56015
268.925,23.71500,      -4.60470
269.44,23.76667,      -4.65305
269.956,23.81833,      -4.70090
270.473,23.87000,      -4.74485
270.99,23.92167,      -4.79170
271.508,23.97333,      -4.83585
272.022,24.02500,      -4.88259
272.538,24.07667,      -4.92604
273.055,24.12833,      -4.97179
273.568,24.18000,      -5.01514
274.086,24.23167,      -5.06039
274.601,24.28333,      -5.10554
275.115,24.33500,      -5.14789
275.632,24.38667,      -5.19254
276.149,24.43833,      -5.23338
276.663,24.49000,      -5.27783
277.181,24.54167,      -5.31868
277.695,24.59333,      -5.36173
278.215,24.64500,      -5.40098
278.73,24.69667,      -5.44392
279.247,24.74833,      -5.48757
279.763,24.80000,      -5.52762
280.281,24.85167,      -5.56946
280.794,24.90333,      -5.60851
281.312,24.95500,      -5.65016
281.829,25.00667,      -5.68920
282.344,25.05833,      -5.73075
282.86,25.11000,      -5.76920
283.376,25.16167,      -5.81074
283.889,25.21333,      -5.85199
284.405,25.26500,      -5.89044
284.927,25.31667,      -5.93088
285.445,25.36833,      -5.96843
285.963,25.42000,      -6.00877
286.477,25.47167,      -6.04692
286.995,25.52333,      -6.08726
287.512,25.57500,      -6.12501
288.029,25.62667,      -6.16525
288.543,25.67833,      -6.20620
289.063,25.73000,      -6.24434
289.578,25.78167,      -6.28478
290.094,25.83333,      -6.32243
290.611,25.88500,      -6.36367
291.129,25.93667,      -6.40232
291.646,25.98833,      -6.44376
292.159,26.04000,      -6.48210
292.675,26.09167,      -6.52355
293.192,26.14333,      -6.56519
293.711,26.19500,      -6.60433
294.228,26.24667,      -6.64677
294.746,26.29833,      -6.68652
295.264,26.35000,      -6.72966
295.781,26.40167,      -6.77010
296.297,26.45333,      -6.81324
296.821,26.50500,      -6.85428
297.34,26.55667,      -6.89872
297.855,26.60833,      -6.94366
298.374,26.66000,      -6.98640
298.892,26.71167,      -7.03154
299.41,26.76333,      -7.07488
299.925,26.81500,      -7.12172
300.442,26.86667,      -7.16656
300.962,26.91833,      -7.21460
301.482,26.97000,      -7.26064
301.995,27.02167,      -7.31018
302.509,27.07333,      -7.35733
303.024,27.12500,      -7.40877
303.539,27.17667,      -7.46091
304.054,27.22833,      -7.51015
304.573,27.28000,      -7.56359
305.091,27.33167,      -7.61503
305.606,27.38333,      -7.67097
306.123,27.43500,      -7.72421
306.638,27.48667,      -7.78215
307.158,27.53833,      -7.84139
307.674,27.59000,      -7.89743
308.19,27.64167,      -7.95867
308.705,27.69333,      -8.01721
309.22,27.74500,      -8.08125
309.735,27.79667,      -8.14209
310.25,27.84833,      -8.20793
310.768,27.90000,      -8.27107
311.289,27.95167,      -8.33941
311.807,28.00333,      -8.40925
312.323,28.05500,      -8.47619
312.843,28.10667,      -8.54743
313.36,28.15833,      -8.61607
313.876,28.21000,      -8.69001
314.395,28.26167,      -8.76005
314.911,28.31333,      -8.83619
315.428,28.36500,      -8.90813
315.941,28.41667,      -8.98427
316.461,28.46833,      -9.06141
316.975,28.52000,      -9.13365
317.492,28.57167,      -9.21109
318.009,28.62333,      -9.28403
318.525,28.67500,      -9.36107
319.04,28.72667,      -9.43261
319.556,28.77833,      -9.50865
320.071,28.83000,      -9.57949
320.585,28.88167,      -9.65423
321.104,28.93333,      -9.72697
321.621,28.98500,      -9.79481
322.139,29.03667,      -9.86525
322.651,29.08833,      -9.93019
323.167,29.14000,      -9.99803
323.683,29.19167,     -10.05967
324.199,29.24333,     -10.12391
324.713,29.29500,     -10.18185
325.229,29.34667,     -10.24269
325.741,29.39833,     -10.30123
326.257,29.45000,     -10.35367
326.771,29.50167,     -10.40771
327.287,29.55333,     -10.45705
327.802,29.60500,     -10.50659
328.32,29.65667,     -10.55192
328.836,29.70833,     -10.59896
329.351,29.76000,     -10.64100
329.866,29.81167,     -10.68424
330.382,29.86333,     -10.72558
330.897,29.91500,     -10.76282
331.412,29.96667,     -10.80096
331.928,30.01833,     -10.83510
332.443,30.07000,     -10.87114
332.96,30.12167,     -10.90248
333.474,30.17333,     -10.93572
333.989,30.22500,     -10.96526
334.503,30.27667,     -10.99670
335.021,30.32833,     -11.02723
335.537,30.38000,     -11.05427
336.056,30.43167,     -11.08291
336.571,30.48333,     -11.10905
337.088,30.53500,     -11.13659
337.603,30.58667,     -11.16173
338.119,30.63833,     -11.18746
338.638,30.69000,     -11.21170
339.157,30.74167,     -11.23634
339.674,30.79333,     -11.26118
340.191,30.84500,     -11.28321
340.709,30.89667,     -11.30705
341.228,30.94833,     -11.32839
341.742,31.00000,     -11.35053
342.259,31.05167,     -11.37147
342.776,31.10333,     -11.39340
343.294,31.15500,     -11.41364
343.81,31.20667,     -11.43518
344.329,31.25833,     -11.45601
344.844,31.31000,     -11.47545
345.361,31.36167,     -11.49599
345.879,31.41333,     -11.51443
346.394,31.46500,     -11.53446
346.914,31.51667,     -11.55240
347.429,31.56833,     -11.57174
347.945,31.62000,     -11.58897
348.461,31.67167,     -11.60741
348.978,31.72333,     -11.62485
349.495,31.77500,     -11.64128
350.013,31.82667,     -11.65632
350.53,31.87833,     -11.66765
351.046,31.93000,     -11.68859
351.563,31.98167,     -11.69983
352.078,32.03333,     -11.72346
352.596,32.08500,     -11.73390
353.112,32.13667,     -11.74564
353.629,32.18833,     -11.75847
354.146,32.24000,     -11.78271
354.661,32.29167,     -11.79384
355.18,32.34333,     -11.80438
355.696,32.39500,     -11.81731
356.214,32.44667,     -11.83975
356.73,32.49833,     -11.84998
357.245,32.55000,     -11.86142
357.761,32.60167,     -11.87245
358.275,32.65333,     -11.88539
358.791,32.70500,     -11.89712
359.308,32.75667,     -11.91026
359.823,32.80833,     -11.92229
360.34,32.86000,     -11.93522
360.859,32.91167,     -11.94706
361.372,32.96333,     -11.95899
361.89,33.01500,     -11.97052
362.405,33.06667,     -11.98286
362.919,33.11833,     -11.99489
363.436,33.17000,     -12.00603
363.954,33.22167,     -12.01746
364.469,33.27333,     -12.02809
364.986,33.32500,     -12.03912
365.502,33.37667,     -12.04956
366.016,33.42833,     -12.06089
366.532,33.48000,     -12.07192
367.048,33.53167,     -12.08225
367.563,33.58333,     -12.09299
368.081,33.63500,     -12.10312
368.596,33.68667,     -12.11395
369.113,33.73833,     -12.12378
369.628,33.79000,     -12.13431
370.147,33.84167,     -12.14384
370.664,33.89333,     -12.15428
371.181,33.94500,     -12.16431
371.696,33.99667,     -12.17364
372.214,34.04833,     -12.18357
372.731,34.10000,     -12.19300
373.249,34.15167,     -12.20343
373.763,34.20333,     -12.21296
374.28,34.25500,     -12.22289
374.795,34.30667,     -12.23232
375.311,34.35833,     -12.24255
375.825,34.41000,     -12.25208
376.344,34.46167,     -12.26181
376.86,34.51333,     -12.27154
377.377,34.56500,     -12.28077
377.892,34.61667,     -12.29060
378.409,34.66833,     -12.29973
378.929,34.72000,     -12.30945
379.446,34.77167,     -12.31808
379.962,34.82333,     -12.32741
380.478,34.87500,     -12.33694
380.992,34.92667,     -12.34647
381.506,34.97833,     -12.35620
382.022,35.03000,     -12.36483
382.537,35.08167,     -12.37415
383.057,35.13333,     -12.38298
383.573,35.18500,     -12.39261
384.088,35.23667,     -12.40143
384.605,35.28833,     -12.41096
385.121,35.34000,     -12.42019
385.638,35.39167,     -12.42881
386.157,35.44333,     -12.43804
386.67,35.49500,     -12.44656
387.188,35.54667,     -12.45639
387.703,35.59833,     -12.46492
388.22,35.65000,     -12.47384
388.736,35.70167,     -12.48227
389.251,35.75333,     -12.49129
389.766,35.80500,     -12.50102
390.284,35.85667,     -12.50954
390.799,35.90833,     -12.51857
391.315,35.96000,     -12.52689
391.832,36.01167,     -12.53541
392.347,36.06333,     -12.54404
392.862,36.11500,     -12.55326
393.379,36.16667,     -12.56169
393.895,36.21833,     -12.57041
394.41,36.27000,     -12.57893
394.926,36.32167,     -12.58746
395.443,36.37333,     -12.59668
395.956,36.42500,     -12.60530
396.474,36.47667,     -12.61422
396.99,36.52833,     -12.62244
397.504,36.58000,     -12.63097
398.024,36.63167,     -12.63879
398.539,36.68333,     -12.64761
399.057,36.73500,     -12.65613
399.573,36.78667,     -12.66395
400.089,36.83833,     -12.67297
400.605,36.89000,     -12.68079
401.121,36.94167,     -12.68951
401.635,36.99333,     -12.69763
402.154,37.04500,     -12.70605
402.669,37.09667,     -12.71427
403.187,37.14833,     -12.72259
403.705,37.20000,     -12.73131
404.22,37.25167,     -12.73923
404.736,37.30333,     -12.74765
405.25,37.35500,     -12.75557
405.766,37.40667,     -12.76269
406.282,37.45833,     -12.77191
406.799,37.51000,     -12.78053
407.314,37.56167,     -12.78835
407.83,37.61333,     -12.79626
408.345,37.66500,     -12.80378
408.862,37.71667,     -12.81150
409.377,37.76833,     -12.81962
409.897,37.82000,     -12.82753
410.412,37.87167,     -12.83585
410.929,37.92333,     -12.84327
411.445,37.97500,     -12.85089
411.961,38.02667,     -12.85831
412.478,38.07833,     -12.86663
412.994,38.13000,     -12.87464
413.511,38.18167,     -12.88226
414.027,38.23333,     -12.89027
414.544,38.28500,     -12.89759
415.062,38.33667,     -12.90561
415.577,38.38833,     -12.91273
416.094,38.44000,     -12.92044
416.612,38.49167,     -12.92756
417.131,38.54333,     -12.93517
417.648,38.59500,     -12.94339
418.163,38.64667,     -12.95081
418.676,38.69833,     -12.95863
419.194,38.75000,     -12.96594
419.711,38.80167,     -12.97346
420.229,38.85333,     -12.98067
420.746,38.90500,     -12.98788
421.262,38.95667,     -12.99550
421.777,39.00833,     -13.00272
422.293,39.06000,     -13.01003
422.81,39.11167,     -13.01705
423.327,39.16333,     -13.02466
423.846,39.21500,     -13.03167
424.361,39.26667,     -13.03899
424.879,39.31833,     -13.04570
425.394,39.37000,     -13.05292
425.91,39.42167,     -13.05943
426.427,39.47333,     -13.06675
426.945,39.52500,     -13.07416
427.463,39.57667,     -13.08077
427.977,39.62833,     -13.08819
428.493,39.68000,     -13.09490
429.01,39.73167,     -13.10202
429.523,39.78333,     -13.10884
430.04,39.83500,     -13.11585
430.557,39.88667,     -13.12226
431.074,39.93833,     -13.12917
431.591,39.99000,     -13.13638
432.107,40.04167,     -13.14270
432.622,40.09333,     -13.14921
433.139,40.14500,     -13.15562
433.655,40.19667,     -13.16244
434.17,40.24833,     -13.16905
434.685,40.30000,     -13.17576
435.201,40.35167,     -13.18197
435.718,40.40333,     -13.18868
436.232,40.45500,     -13.19530
436.75,40.50667,     -13.20161
437.268,40.55833,     -13.20812
437.784,40.61000,     -13.21433
438.298,40.66167,     -13.22084
438.815,40.71333,     -13.22675
439.332,40.76500,     -13.23346
439.847,40.81667,     -13.23958
440.361,40.86833,     -13.24639
440.879,40.92000,     -13.25280
441.398,40.97167,     -13.25831
441.913,41.02333,     -13.26431
442.431,41.07500,     -13.27002
442.946,41.12667,     -13.27644
443.464,41.17833,     -13.28205
443.979,41.23000,     -13.28866
444.497,41.28167,     -13.29457
445.014,41.33333,     -13.30058
445.53,41.38500,     -13.30669
446.048,41.43667,     -13.31229
446.566,41.48833,     -13.31820
447.081,41.54000,     -13.32381
447.594,41.59167,     -13.32953
448.108,41.64333,     -13.33504
448.628,41.69500,     -13.34044
449.142,41.74667,     -13.34595
449.66,41.79833,     -13.35216
450.177,41.85000,     -13.35777
450.693,41.90167,     -13.36348
451.211,41.95333,     -13.36918
451.724,42.00500,     -13.37459
452.24,42.05667,     -13.37990
452.759,42.10833,     -13.38471
453.272,42.16000,     -13.39052
453.788,42.21167,     -13.39562
454.304,42.26333,     -13.40113
454.821,42.31500,     -13.40654
455.337,42.36667,     -13.41085
455.852,42.41833,     -13.41635
456.366,42.47000,     -13.42246
456.881,42.52167,     -13.42807
457.4,42.57333,     -13.43307
457.919,42.62500,     -13.43818
458.434,42.67667,     -13.44319
458.949,42.72833,     -13.44810
459.466,42.78000,     -13.45370
459.984,42.83167,     -13.45841
460.498,42.88333,     -13.46331
461.012,42.93500,     -13.46792
461.528,42.98667,     -13.47273
462.046,43.03833,     -13.47743
462.559,43.09000,     -13.48254
463.08,43.14167,     -13.48774
463.598,43.19333,     -13.49265
464.115,43.24500,     -13.49755
464.628,43.29667,     -13.50196
465.146,43.34833,     -13.50706
465.665,43.40000,     -13.51176
466.18,43.45167,     -13.51647
466.696,43.50333,     -13.52088
467.214,43.55500,     -13.52518
467.731,43.60667,     -13.52938
468.248,43.65833,     -13.53389
468.762,43.71000,     -13.53869
469.279,43.76167,     -13.54320
469.797,43.81333,     -13.54760
470.313,43.86500,     -13.55151
470.827,43.91667,     -13.55611
471.342,43.96833,     -13.56031
471.862,44.02000,     -13.56482
472.376,44.07167,     -13.56922
472.89,44.12333,     -13.57312
473.406,44.17500,     -13.57753
473.925,44.22667,     -13.58153
474.441,44.27833,     -13.58573
474.956,44.33000,     -13.59003
475.471,44.38167,     -13.59444
475.988,44.43333,     -13.59834
476.504,44.48500,     -13.60234
477.018,44.53667,     -13.60665
477.533,44.58833,     -13.61055
478.048,44.64000,     -13.61465
478.562,44.69167,     -13.61845
479.079,44.74333,     -13.62225
479.591,44.79500,     -13.62616
480.109,44.84667,     -13.63016
480.626,44.89833,     -13.63356
481.144,44.95000,     -13.63746
481.664,45.00167,     -13.64105
482.179,45.05333,     -13.64496
482.696,45.10500,     -13.64876
483.211,45.15667,     -13.65246
483.727,45.20833,     -13.65636
484.243,45.26000,     -13.65996
484.757,45.31167,     -13.66366
485.274,45.36333,     -13.66706
485.79,45.41500,     -13.67076
486.305,45.46667,     -13.67436
486.824,45.51833,     -13.67736
487.338,45.57000,     -13.68126
487.854,45.62167,     -13.68486
488.369,45.67333,     -13.68826
488.886,45.72500,     -13.69186
489.405,45.77667,     -13.69536
489.922,45.82833,     -13.69866
490.442,45.88000,     -13.70205
490.957,45.93167,     -13.70545
491.472,45.98333,     -13.70886
491.989,46.03500,     -13.71235
492.505,46.08667,     -13.71575
493.021,46.13833,     -13.71935
493.537,46.19000,     -13.72255
494.057,46.24167,     -13.72564
494.572,46.29333,     -13.72874
495.087,46.34500,     -13.73174
495.601,46.39667,     -13.73514
496.116,46.44833,     -13.73814
496.635,46.50000,     -13.74144
497.148,46.55167,     -13.74424
497.665,46.60333,     -13.74763
498.181,46.65500,     -13.75033
498.697,46.70667,     -13.75363
499.214,46.75833,     -13.75682
499.728,46.81000,     -13.75982
500.246,46.86167,     -13.76322
500.763,46.91333,     -13.76581
501.278,46.96500,     -13.76901
501.795,47.01667,     -13.77191
502.307,47.06833,     -13.77491
502.823,47.12000,     -13.77760
503.338,47.17167,     -13.78050
503.854,47.22333,     -13.78309
504.373,47.27500,     -13.78589
504.888,47.32667,     -13.78888
505.403,47.37833,     -13.79168
505.921,47.43000,     -13.79468
506.436,47.48167,     -13.79747
506.954,47.53333,     -13.80027
507.469,47.58500,     -13.80316
507.984,47.63667,     -13.80626
508.504,47.68833,     -13.80895
509.02,47.74000,     -13.81145
509.536,47.79167,     -13.81404
510.052,47.84333,     -13.81664
510.568,47.89500,     -13.81934
511.085,47.94667,     -13.82203
511.6,47.99833,     -13.82482
512.117,48.05000,     -13.82702
512.632,48.10167,     -13.82982
513.149,48.15333,     -13.83271
513.663,48.20500,     -13.83521
514.18,48.25667,     -13.83760
514.695,48.30833,     -13.83980
515.213,48.36000,     -13.84259
515.728,48.41167,     -13.84508
516.243,48.46333,     -13.84768
516.76,48.51500,     -13.85027
517.277,48.56667,     -13.85287
517.794,48.61833,     -13.85506
518.309,48.67000,     -13.85755
518.825,48.72167,     -13.86015
519.346,48.77333,     -13.86244
519.861,48.82500,     -13.86443
520.382,48.87667,     -13.86702
520.898,48.92833,     -13.86952
521.413,48.98000,     -13.87231
521.931,49.03167,     -13.87450
522.446,49.08333,     -13.87680
522.961,49.13500,     -13.87899
523.475,49.18667,     -13.88149
523.989,49.23833,     -13.88398
524.504,49.29000,     -13.88668
525.023,49.34167,     -13.88887
525.542,49.39333,     -13.89116
526.057,49.44500,     -13.89315
526.574,49.49667,     -13.89574
527.089,49.54833,     -13.89783
527.605,49.60000,     -13.90003
528.12,49.65167,     -13.90222
528.638,49.70333,     -13.90451
529.151,49.75500,     -13.90681
529.669,49.80667,     -13.90839
530.183,49.85833,     -13.91059
530.696,49.91000,     -13.91298
531.213,49.96167,     -13.91557
531.729,50.01333,     -13.91796
532.247,50.06500,     -13.92035
532.766,50.11667,     -13.92254
533.279,50.16833,     -13.92443
533.799,50.22000,     -13.92592
534.314,50.27167,     -13.92741
534.831,50.32333,     -13.92950
535.346,50.37500,     -13.93190
535.864,50.42667,     -13.93428
536.381,50.47833,     -13.93627
536.897,50.53000,     -13.93827
537.416,50.58167,     -13.93995
537.928,50.63333,     -13.94185
538.444,50.68500,     -13.94444
538.963,50.73667,     -13.94642
539.477,50.78833,     -13.94862
539.992,50.84000,     -13.95091
540.51,50.89167,     -13.95339
541.026,50.94333,     -13.95518
541.542,50.99500,     -13.95707
542.058,51.04667,     -13.95876
542.574,51.09833,     -13.96035
543.091,51.15000,     -13.96254
543.606,51.20167,     -13.96463
544.125,51.25333,     -13.96672
544.641,51.30500,     -13.96870
545.158,51.35667,     -13.97059
545.674,51.40833,     -13.97218
546.187,51.46000,     -13.97467
546.699,51.51167,     -13.97666
547.217,51.56333,     -13.97845
547.733,51.61500,     -13.98054
548.248,51.66667,     -13.98222
548.765,51.71833,     -13.98411
549.287,51.77000,     -13.98619
549.803,51.82167,     -13.98808
550.319,51.87333,     -13.98937
550.836,51.92500,     -13.99106
551.352,51.97667,     -13.99304
551.868,52.02833,     -13.99493
552.383,52.08000,     -13.99722
552.903,52.13167,     -13.99890
553.421,52.18333,     -14.00099
553.937,52.23500,     -14.00267
554.457,52.28667,     -14.00446
554.973,52.33833,     -14.00644
555.489,52.39000,     -14.00823
556.003,52.44167,     -14.01002
556.522,52.49333,     -14.01150
557.034,52.54500,     -14.01379
557.549,52.59667,     -14.01538
558.064,52.64833,     -14.01746
558.576,52.70000,     -14.01915
559.088,52.75167,     -14.02094
559.603,52.80333,     -14.02232
560.122,52.85500,     -14.02350
560.643,52.90667,     -14.02458
561.161,52.95833,     -14.02586
561.681,53.01000,     -14.02764
562.197,53.06167,     -14.02863
562.715,53.11333,     -14.02991
563.232,53.16500,     -14.03240
563.745,53.21667,     -14.03519
564.26,53.26833,     -14.03727
564.776,53.32000,     -14.03866
565.293,53.37167,     -14.04004
565.811,53.42333,     -14.04122
566.331,53.47500,     -14.04230
566.846,53.52667,     -14.04358
567.362,53.57833,     -14.04546
567.882,53.63000,     -14.04744
568.397,53.68167,     -14.04993
568.915,53.73333,     -14.05121
569.434,53.78500,     -14.05259
569.951,53.83667,     -14.05397
570.467,53.88833,     -14.05525
570.979,53.94000,     -14.05674
571.498,53.99167,     -14.05792
572.012,54.04333,     -14.05940
572.529,54.09500,     -14.06078
573.044,54.14667,     -14.06266
573.558,54.19833,     -14.06474
574.075,54.25000,     -14.06692
574.592,54.30167,     -14.06890
575.108,54.35333,     -14.07018
575.628,54.40500,     -14.07156
576.144,54.45667,     -14.07284
576.659,54.50833,     -14.07402
577.172,54.56000,     -14.07520
577.686,54.61167,     -14.07658
578.203,54.66333,     -14.07786
578.718,54.71500,     -14.07904
579.234,54.76667,     -14.08062
579.75,54.81833,     -14.08180
580.27,54.87000,     -14.08337
580.789,54.92167,     -14.08475
581.306,54.97333,     -14.08623
581.82,55.02500,     -14.08800
582.34,55.07667,     -14.09038
582.856,55.12833,     -14.09236
583.373,55.18000,     -14.09424
583.887,55.23167,     -14.09552
584.406,55.28333,     -14.09649
584.92,55.33500,     -14.09757
585.439,55.38667,     -14.09874
585.964,55.43833,     -14.10001
586.487,55.49000,     -14.10119
587.003,55.54167,     -14.10246
587.517,55.59333,     -14.10375
588.032,55.64500,     -14.10523
588.542,55.69667,     -14.10661
589.057,55.74833,     -14.10788
589.571,55.80000,     -14.10946
590.082,55.85167,     -14.11064
590.598,55.90333,     -14.11241
591.113,55.95500,     -14.11378
591.632,56.00667,     -14.11525
592.151,56.05833,     -14.11733
592.666,56.11000,     -14.11910
593.186,56.16167,     -14.12077
593.706,56.21333,     -14.12224
594.222,56.26500,     -14.12352
594.74,56.31667,     -14.12449
595.252,56.36833,     -14.12547
595.77,56.42000,     -14.12664
596.286,56.47167,     -14.12772
596.799,56.52333,     -14.12889
597.316,56.57500,     -14.13006
597.829,56.62667,     -14.13144
598.346,56.67833,     -14.13271
598.863,56.73000,     -14.13398
599.381,56.78167,     -14.13535
599.9,56.83333,     -14.13682
600.413,56.88500,     -14.13809
600.934,56.93667,     -14.13986
601.449,56.98833,     -14.14153
601.962,57.04000,     -14.14361
602.479,57.09167,     -14.14518
602.992,57.14333,     -14.14605
603.511,57.19500,     -14.14742
604.026,57.24667,     -14.14839
604.545,57.29833,     -14.14956
605.062,57.35000,     -14.15043
605.579,57.40167,     -14.15140
606.097,57.45333,     -14.15266
606.616,57.50500,     -14.15393
607.134,57.55667,     -14.15530
607.652,57.60833,     -14.15687
608.17,57.66000,     -14.15804
608.683,57.71167,     -14.15911
609.201,57.76333,     -14.16048
609.713,57.81500,     -14.16165
610.23,57.86667,     -14.16282
610.744,57.91833,     -14.16419
611.26,57.97000,     -14.16575
611.779,58.02167,     -14.16722
612.299,58.07333,     -14.16848
612.814,58.12500,     -14.16995
613.332,58.17667,     -14.17122
613.849,58.22833,     -14.17238
614.362,58.28000,     -14.17345
614.879,58.33167,     -14.17452
615.394,58.38333,     -14.17569
615.912,58.43500,     -14.17705
616.428,58.48667,     -14.17812
616.943,58.53833,     -14.17909
617.461,58.59000,     -14.18075
617.979,58.64167,     -14.18181
618.495,58.69333,     -14.18298
619.013,58.74500,     -14.18404
619.53,58.79667,     -14.18521
620.047,58.84833,     -14.18557
620.564,58.90000,     -14.18654
621.08,58.95167,     -14.18871
621.591,59.00333,     -14.19027
622.106,59.05500,     -14.19154
622.621,59.10667,     -14.19260
623.141,59.15833,     -14.19376
623.657,59.21000,     -14.19453
624.178,59.26167,     -14.19559
624.697,59.31333,     -14.19685
625.215,59.36500,     -14.19811
625.731,59.41667,     -14.19918
626.25,59.46833,     -14.20054
626.771,59.52000,     -14.20150
627.283,59.57167,     -14.20237
627.799,59.62333,     -14.20393
628.314,59.67500,     -14.20489
628.828,59.72667,     -14.20586
629.343,59.77833,     -14.20682
629.861,59.83000,     -14.20788
630.378,59.88167,     -14.20884
630.898,59.93333,     -14.20970
631.416,59.98500,     -14.21056
631.934,60.03667,     -14.21142
632.452,60.08833,     -14.21238
632.971,60.14000,     -14.21364
633.481,60.19167,     -14.21461
633.997,60.24333,     -14.21577
634.515,60.29500,     -14.21673
635.027,60.34667,     -14.21780
635.545,60.39833,     -14.21895
636.061,60.45000,     -14.21992
636.576,60.50167,     -14.22107
637.095,60.55333,     -14.22223
637.611,60.60500,     -14.22309
638.127,60.65667,     -14.22415
638.645,60.70833,     -14.22511
639.163,60.76000,     -14.22607
639.677,60.81167,     -14.22723
640.194,60.86333,     -14.22819
640.707,60.91500,     -14.22906
641.223,60.96667,     -14.22981
641.742,61.01833,     -14.23077
642.259,61.07000,     -14.23173
642.773,61.12167,     -14.23289
643.29,61.17333,     -14.23385
643.805,61.22500,     -14.23490
644.322,61.27667,     -14.23606
644.839,61.32833,     -14.23702
645.357,61.38000,     -14.23787
645.873,61.43167,     -14.23883
646.389,61.48333,     -14.24009
646.906,61.53500,     -14.24105
647.418,61.58667,     -14.24211
647.934,61.63833,     -14.24297
648.447,61.69000,     -14.24393
648.965,61.74167,     -14.24488
649.481,61.79333,     -14.24604
649.999,61.84500,     -14.24709
650.521,61.89667,     -14.24825
651.039,61.94833,     -14.24920
651.557,62.00000,     -14.25006
652.075,62.05167,     -14.25102
652.589,62.10333,     -14.25187
653.105,62.15500,     -14.25273
653.619,62.20667,     -14.25369
654.136,62.25833,     -14.25495
654.651,62.31000,     -14.25590
655.17,62.36167,     -14.25695
655.689,62.41333,     -14.25801
656.205,62.46500,     -14.25866
656.722,62.51667,     -14.25932
657.239,62.56833,     -14.26037
657.753,62.62000,     -14.26143
658.267,62.67167,     -14.26269
658.779,62.72333,     -14.26375
659.294,62.77500,     -14.26500
659.811,62.82667,     -14.26595
660.327,62.87833,     -14.26701
660.847,62.93000,     -14.26786
661.363,62.98167,     -14.26881
661.882,63.03333,     -14.26966
662.402,63.08500,     -14.27062
662.922,63.13667,     -14.27147
663.436,63.18833,     -14.27222
663.954,63.24000,     -14.27318
664.471,63.29167,     -14.27433
664.988,63.34333,     -14.27499
665.504,63.39500,     -14.27584
666.021,63.44667,     -14.27659
666.537,63.49833,     -14.27725
667.052,63.55000,     -14.27790
667.57,63.60167,     -14.27896
668.083,63.65333,     -14.27991
668.598,63.70500,     -14.28096
669.111,63.75667,     -14.28202
669.626,63.80833,     -14.28297
670.142,63.86000,     -14.28392
670.66,63.91167,     -14.28467
671.177,63.96333,     -14.28563
671.694,64.01500,     -14.28658
672.211,64.06667,     -14.28763
672.729,64.11833,     -14.28828
673.244,64.17000,     -14.28903
673.761,64.22167,     -14.28999
674.275,64.27333,     -14.29074
674.792,64.32500,     -14.29149
675.308,64.37667,     -14.29204
675.827,64.42833,     -14.29309
676.341,64.48000,     -14.29404
676.859,64.53167,     -14.29489
677.379,64.58333,     -14.29564
677.893,64.63500,     -14.29650
678.412,64.68667,     -14.29715
678.926,64.73833,     -14.29800
679.443,64.79000,     -14.29885
679.956,64.84167,     -14.29970
680.473,64.89333,     -14.30045
680.99,64.94500,     -14.30130
681.504,64.99667,     -14.30225
682.024,65.04833,     -14.30310
682.539,65.10000,     -14.30415
683.056,65.15167,     -14.30510
683.572,65.20333,     -14.30605
684.09,65.25500,     -14.30690
684.605,65.30667,     -14.30775
685.122,65.35833,     -14.30890
685.64,65.41000,     -14.30975
686.158,65.46167,     -14.31040
686.678,65.51333,     -14.31125
687.196,65.56500,     -14.31230
687.711,65.61667,     -14.31315
688.228,65.66833,     -14.31410
688.74,65.72000,     -14.31485
689.256,65.77167,     -14.31580
689.77,65.82333,     -14.31675
690.29,65.87500,     -14.31750
690.808,65.92667,     -14.31835
691.328,65.97833,     -14.31889
691.843,66.03000,     -14.31954
692.362,66.08167,     -14.32009
692.88,66.13333,     -14.32064
693.394,66.18500,     -14.32129
693.912,66.23667,     -14.32214
694.427,66.28833,     -14.32319
694.945,66.34000,     -14.32383
695.462,66.39167,     -14.32468
695.979,66.44333,     -14.32543
696.497,66.49500,     -14.32608
697.011,66.54667,     -14.32673
697.533,66.59833,     -14.32777
698.044,66.65000,     -14.32872
698.561,66.70167,     -14.32967
699.08,66.75333,     -14.33062
699.597,66.80500,     -14.33146
700.114,66.85667,     -14.33221
700.627,66.90833,     -14.33306
701.145,66.96000,     -14.33371
701.663,67.01167,     -14.33436
702.176,67.06333,     -14.33521
702.694,67.11500,     -14.33595
703.209,67.16667,     -14.33660
703.727,67.21833,     -14.33745
704.248,67.27000,     -14.33779
704.762,67.32167,     -14.33844
705.278,67.37333,     -14.33949
705.791,67.42500,     -14.34054
706.308,67.47667,     -14.34149
706.823,67.52833,     -14.34254
707.341,67.58000,     -14.34318
707.858,67.63167,     -14.34373
708.379,67.68333,     -14.34427
708.897,67.73500,     -14.34492
709.413,67.78667,     -14.34577
709.927,67.83833,     -14.34672
710.443,67.89000,     -14.34767
710.957,67.94167,     -14.34852
711.474,67.99333,     -14.34966
711.991,68.04500,     -14.35051
712.505,68.09667,     -14.35136
713.02,68.14833,     -14.35201
713.538,68.20000,     -14.35285
714.058,68.25167,     -14.35390
714.573,68.30333,     -14.35455
715.094,68.35500,     -14.35519
715.613,68.40667,     -14.35574
716.125,68.45833,     -14.35659
716.643,68.51000,     -14.35733
717.159,68.56167,     -14.35778
717.678,68.61333,     -14.35843
718.194,68.66500,     -14.35927
718.713,68.71667,     -14.36002
719.227,68.76833,     -14.36057
719.743,68.82000,     -14.36132
720.261,68.87167,     -14.36186
720.78,68.92333,     -14.36250
721.295,68.97500,     -14.36305
721.809,69.02667,     -14.36390
722.327,69.07833,     -14.36495
722.846,69.13000,     -14.36559
723.361,69.18167,     -14.36644
723.881,69.23333,     -14.36729
724.395,69.28500,     -14.36833
724.908,69.33667,     -14.36898
725.427,69.38833,     -14.37002
725.942,69.44000,     -14.37067
726.461,69.49167,     -14.37132
726.977,69.54333,     -14.37206
727.494,69.59500,     -14.37291
728.009,69.64667,     -14.37386
728.525,69.69833,     -14.37480
729.042,69.75000,     -14.37575
729.556,69.80167,     -14.37649
730.076,69.85333,     -14.37724
730.593,69.90500,     -14.37808
731.108,69.95667,     -14.37853
731.626,70.00833,     -14.37897
732.14,70.06000,     -14.37952
732.655,70.11167,     -14.38006
733.168,70.16333,     -14.38071
733.687,70.21500,     -14.38156
734.202,70.26667,     -14.38220
734.722,70.31833,     -14.38274
735.238,70.37000,     -14.38329
735.753,70.42167,     -14.38413
736.271,70.47333,     -14.38458
736.786,70.52500,     -14.38522
737.304,70.57667,     -14.38616
737.82,70.62833,     -14.38711
738.331,70.68000,     -14.38796
738.845,70.73167,     -14.38870
739.365,70.78333,     -14.38944
739.881,70.83500,     -14.38998
740.4,70.88667,     -14.39062
740.92,70.93833,     -14.39117
741.44,70.99000,     -14.39171
741.96,71.04167,     -14.39235
742.471,71.09333,     -14.39290
742.988,71.14500,     -14.39374
743.502,71.19667,     -14.39428
744.017,71.24833,     -14.39513
744.531,71.30000,     -14.39597
745.046,71.35167,     -14.39671
745.561,71.40333,     -14.39765
746.081,71.45500,     -14.39840
746.603,71.50667,     -14.39873
747.119,71.55833,     -14.39917
747.634,71.61000,     -14.39992
748.148,71.66167,     -14.40036
748.663,71.71333,     -14.40110
749.18,71.76500,     -14.40195
749.695,71.81667,     -14.40279
750.21,71.86833,     -14.40373
750.728,71.92000,     -14.40487
751.245,71.97167,     -14.40581
751.764,72.02333,     -14.40665
752.281,72.07500,     -14.40739
752.801,72.12667,     -14.40792
753.314,72.17833,     -14.40837
753.829,72.23000,     -14.40911
754.339,72.28167,     -14.40975
754.852,72.33333,     -14.41039
755.368,72.38500,     -14.41153
755.882,72.43667,     -14.41257
756.404,72.48833,     -14.41331
756.923,72.54000,     -14.41364
757.442,72.59167,     -14.41438
757.96,72.64333,     -14.41512
758.477,72.69500,     -14.41576
758.991,72.74667,     -14.41640
759.506,72.79833,     -14.41694
760.019,72.85000,     -14.41748
760.535,72.90167,     -14.41791
761.052,72.95333,     -14.41835
761.569,73.00500,     -14.41879
762.082,73.05667,     -14.41953
762.6,73.10833,     -14.42026
763.12,73.16000,     -14.42110
763.636,73.21167,     -14.42193
764.154,73.26333,     -14.42277
764.673,73.31500,     -14.42330
765.19,73.36667,     -14.42404
765.705,73.41833,     -14.42468
766.224,73.47000,     -14.42531
766.739,73.52167,     -14.42595
767.259,73.57333,     -14.42678
767.773,73.62500,     -14.42762
768.286,73.67667,     -14.42815
768.804,73.72833,     -14.42889
769.32,73.78000,     -14.42952
769.838,73.83167,     -14.43035
770.352,73.88333,     -14.43089
770.871,73.93500,     -14.43172
771.388,73.98667,     -14.43216
771.905,74.03833,     -14.43279
772.418,74.09000,     -14.43352
772.935,74.14167,     -14.43416
773.451,74.19333,     -14.43519
773.961,74.24500,     -14.43603
774.479,74.29667,     -14.43686
774.992,74.34833,     -14.43769
775.51,74.40000,     -14.43832
776.027,74.45167,     -14.43895
776.545,74.50333,     -14.43968
777.063,74.55500,     -14.44031
777.578,74.60667,     -14.44094
778.094,74.65833,     -14.44137
778.611,74.71000,     -14.44181
779.125,74.76167,     -14.44214
779.641,74.81333,     -14.44267
780.157,74.86500,     -14.44350
780.673,74.91667,     -14.44403
781.19,74.96833,     -14.44465
781.709,75.02000,     -14.44548
782.227,75.07167,     -14.44611
782.747,75.12333,     -14.44624
783.262,75.17500,     -14.44707
783.775,75.22667,     -14.44790
784.294,75.27833,     -14.44872
784.808,75.33000,     -14.44925
785.327,75.38167,     -14.44998
785.847,75.43333,     -14.45080
786.365,75.48500,     -14.45143
786.885,75.53667,     -14.45185
787.403,75.58833,     -14.45228
787.923,75.64000,     -14.45270
788.442,75.69167,     -14.45333
788.96,75.74333,     -14.45385
789.471,75.79500,     -14.45448
789.991,75.84667,     -14.45540
790.509,75.89833,     -14.45623
791.025,75.95000,     -14.45705
791.541,76.00167,     -14.45738
792.064,76.05333,     -14.45760
792.579,76.10500,     -14.45842
793.098,76.15667,     -14.45934
793.614,76.20833,     -14.46007
794.131,76.26000,     -14.46059
794.643,76.31167,     -14.46132
795.16,76.36333,     -14.46204
795.673,76.41500,     -14.46256
796.188,76.46667,     -14.46308
796.707,76.51833,     -14.46350
797.222,76.57000,     -14.46353
797.736,76.62167,     -14.46425
798.248,76.67333,     -14.46497
798.761,76.72500,     -14.46569
799.274,76.77667,     -14.46621
799.49,76.79833,     -14.46654