File: data-raw/TGA/AA_TGA.csv
#EXPORTTYPE:                 ,DATA SINGLE
#FILE:                       ,AA.ngb-st9
#FORMAT:                     ,NETZSCH5
#FTYPE:                      ,ANSI
#IDENTITY:                   ,Saras
#DECIMAL:                    ,POINT
#SEPARATOR:                  ,COMMA
#MTYPE:                      ,TG
#INSTRUMENT:                 ,NETZSCH TG 209F1 Libra
#PROJECT:                    ,IL
#DATE/TIME:                  ,10/03/2017 4:03:09 PM (UTC+11)
#CORR. FILE:                 ,
#TEMPCAL:                    ,TCALZERO.TCX
#LABORATORY:                 ,Capture Lab
#OPERATOR:                   ,NJN
#REMARK:                     ,Training run
#SAMPLE:                     ,AA
#SAMPLE MASS /mg:            ,10.4106
#MATERIAL:                   ,KHCO3
#TYPE OF CRUCIBLE:           ,Al2O3
#SAMPLE CRUCIBLE MASS /mg:   ,311.8469
#REFERENCE CRUCIBLE MASS /mg:,
#M.RANGE /mg:                ,2000
#CORR. CODE:                 ,090
#RANGE:                      ,32°C/10.0(K/min)/800°C
#SEGMENT:                    ,S1/1
#SEG. 1:                     ,32°C/10.0(K/min)/800°C

##Temp./°C,Time/min,Mass loss/mg
 31.34300, 0.00000,-2.474829e-003
 31.34700, 0.05167,-4.736944e-003
 31.41000, 0.10333,-6.061827e-003
 31.73400, 0.15500,-5.297812e-003
 32.14300, 0.20667,-4.780241e-003
 32.52400, 0.25833,-5.617627e-003
 32.90900, 0.31000,-6.894342e-003
 33.34800, 0.36167,-8.059093e-003
 33.83400, 0.41333,-9.386696e-003
 34.34900, 0.46500,-1.084956e-002
 34.89000, 0.51667,-1.242041e-002
 35.45900, 0.56833,-1.393681e-002
 36.05100, 0.62000,-1.579293e-002
 36.66700, 0.67167,-1.780141e-002
 37.29700, 0.72333,-1.990097e-002
 37.93800, 0.77500,-2.280417e-002
 38.59300, 0.82667,-2.593200e-002
 39.25300, 0.87833,-2.968480e-002
 39.91700, 0.93000,-3.304047e-002
 40.58300, 0.98167,-3.654779e-002
 41.24600, 1.03333,-3.988518e-002
 41.90200, 1.08500,-4.343434e-002
 42.55000, 1.13667,-4.723317e-002
 43.19200, 1.18833,-5.119539e-002
 43.82200, 1.24000,-5.480732e-002
 44.44300, 1.29167,-5.928168e-002
 45.05600, 1.34333,-6.406558e-002
 45.65400, 1.39500,-6.840511e-002
 46.24400, 1.44667,-7.273821e-002
 46.82100, 1.49833,-7.647201e-002
 47.38800, 1.55000,-8.170361e-002
 47.94000, 1.60167,-8.620484e-002
 48.48800, 1.65333,-9.115053e-002
 49.02300, 1.70500,-9.590021e-002
 49.55500, 1.75667,      -0.10177
 50.07600, 1.80833,      -0.10726
 50.59100, 1.86000,      -0.11263
 51.10100, 1.91167,      -0.11845
 51.60100, 1.96333,      -0.12345
 52.10300, 2.01500,      -0.12910
 52.60400, 2.06667,      -0.13419
 53.10000, 2.11833,      -0.14027
 53.59600, 2.17000,      -0.14566
 54.08700, 2.22167,      -0.15135
 54.57900, 2.27333,      -0.15715
 55.07600, 2.32500,      -0.16270
 55.56900, 2.37667,      -0.16873
 56.06800, 2.42833,      -0.17419
 56.56200, 2.48000,      -0.18023
 57.05900, 2.53167,      -0.18607
 57.56300, 2.58333,      -0.19235
 58.06100, 2.63500,      -0.19810
 58.56900, 2.68667,      -0.20399
 59.07700, 2.73833,      -0.21017
 59.58500, 2.79000,      -0.21613
 60.09500, 2.84167,      -0.22268
 60.61200, 2.89333,      -0.22846
 61.12100, 2.94500,      -0.23481
 61.64200, 2.99667,      -0.24069
 62.15900, 3.04833,      -0.24654
 62.67900, 3.10000,      -0.25230
 63.19900, 3.15167,      -0.25814
 63.72400, 3.20333,      -0.26421
 64.24400, 3.25500,      -0.27033
 64.76500, 3.30667,      -0.27665
 65.28800, 3.35833,      -0.28249
 65.81200, 3.41000,      -0.28871
 66.33500, 3.46167,      -0.29434
 66.86300, 3.51333,      -0.29999
 67.38800, 3.56500,      -0.30551
 67.91600, 3.61667,      -0.31144
 68.43500, 3.66833,      -0.31732
 68.95900, 3.72000,      -0.32293
 69.48000, 3.77167,      -0.32891
 69.99800, 3.82333,      -0.33400
 70.51200, 3.87500,      -0.33986
 71.03200, 3.92667,      -0.34577
 71.55000, 3.97833,      -0.35059
 72.07000, 4.03000,      -0.35560
 72.58600, 4.08167,      -0.35980
 73.10000, 4.13333,      -0.36509
 73.62000, 4.18500,      -0.36992
 74.13500, 4.23667,      -0.37510
 74.65200, 4.28833,      -0.38001
 75.16800, 4.34000,      -0.38491
 75.68300, 4.39167,      -0.38940
 76.20500, 4.44333,      -0.39435
 76.72200, 4.49500,      -0.39904
 77.24000, 4.54667,      -0.40334
 77.75400, 4.59833,      -0.40752
 78.27200, 4.65000,      -0.41183
 78.78900, 4.70167,      -0.41613
 79.30300, 4.75333,      -0.42012
 79.81900, 4.80500,      -0.42452
 80.33500, 4.85667,      -0.42852
 80.84900, 4.90833,      -0.43292
 81.36800, 4.96000,      -0.43703
 81.88600, 5.01167,      -0.44053
 82.40300, 5.06333,      -0.44383
 82.91800, 5.11500,      -0.44692
 83.43500, 5.16667,      -0.45042
 83.95300, 5.21833,      -0.45361
 84.46600, 5.27000,      -0.45660
 84.98200, 5.32167,      -0.46039
 85.49800, 5.37333,      -0.46359
 86.01700, 5.42500,      -0.46660
 86.53400, 5.47667,      -0.46950
 87.05400, 5.52833,      -0.47212
 87.57400, 5.58000,      -0.47511
 88.09100, 5.63167,      -0.47811
 88.60400, 5.68333,      -0.48079
 89.13100, 5.73500,      -0.48330
 89.64800, 5.78667,      -0.48559
 90.16400, 5.83833,      -0.48798
 90.68300, 5.89000,      -0.49057
 91.20100, 5.94167,      -0.49296
 91.72000, 5.99333,      -0.49506
 92.23900, 6.04500,      -0.49705
 92.75800, 6.09667,      -0.49924
 93.27500, 6.14833,      -0.50103
 93.78800, 6.20000,      -0.50300
 94.30500, 6.25167,      -0.50519
 94.82400, 6.30333,      -0.50729
 95.34000, 6.35500,      -0.50919
 95.85500, 6.40667,      -0.51047
 96.37300, 6.45833,      -0.51176
 96.89100, 6.51000,      -0.51285
 97.40900, 6.56167,      -0.51425
 97.92500, 6.61333,      -0.51564
 98.44300, 6.66500,      -0.51714
 98.95700, 6.71667,      -0.51832
 99.47400, 6.76833,      -0.51971
 99.98900, 6.82000,      -0.52090
100.507, 6.87167,      -0.52242
101.024, 6.92333,      -0.52344
101.543, 6.97500,      -0.52465
102.058, 7.02667,      -0.52566
102.573, 7.07833,      -0.52647
103.092, 7.13000,      -0.52768
103.607, 7.18167,      -0.52879
104.125, 7.23333,      -0.52950
104.639, 7.28500,      -0.53039
105.154, 7.33667,      -0.53129
105.667, 7.38833,      -0.53239
106.185, 7.44000,      -0.53349
106.7, 7.49167,      -0.53450
107.216, 7.54333,      -0.53530
107.733, 7.59500,      -0.53600
108.247, 7.64667,      -0.53650
108.763, 7.69833,      -0.53740
109.276, 7.75000,      -0.53819
109.798, 7.80167,      -0.53889
110.312, 7.85333,      -0.53948
110.827, 7.90500,      -0.53997
111.343, 7.95667,      -0.54066
111.859, 8.00833,      -0.54115
112.377, 8.06000,      -0.54175
112.892, 8.11167,      -0.54223
113.411, 8.16333,      -0.54262
113.927, 8.21500,      -0.54330
114.441, 8.26667,      -0.54378
114.957, 8.31833,      -0.54426
115.477, 8.37000,      -0.54475
115.993, 8.42167,      -0.54513
116.508, 8.47333,      -0.54550
117.03, 8.52500,      -0.54580
117.543, 8.57667,      -0.54606
118.064, 8.62833,      -0.54625
118.58, 8.68000,      -0.54671
119.094, 8.73167,      -0.54718
119.611, 8.78333,      -0.54755
120.127, 8.83500,      -0.54792
120.644, 8.88667,      -0.54830
121.159, 8.93833,      -0.54856
121.676, 8.99000,      -0.54893
122.194, 9.04167,      -0.54931
122.712, 9.09333,      -0.54948
123.229, 9.14500,      -0.54994
123.743, 9.19667,      -0.55030
124.262, 9.24833,      -0.55067
124.777, 9.30000,      -0.55073
125.296, 9.35167,      -0.55110
125.811, 9.40333,      -0.55145
126.326, 9.45500,      -0.55172
126.849, 9.50667,      -0.55208
127.361, 9.55833,      -0.55213
127.875, 9.61000,      -0.55249
128.393, 9.66167,      -0.55274
128.912, 9.71333,      -0.55300
129.427, 9.76500,      -0.55336
129.944, 9.81667,      -0.55381
130.459, 9.86833,      -0.55406
130.978, 9.92000,      -0.55423
131.493, 9.97167,      -0.55457
132.009,10.02333,      -0.55503
132.525,10.07500,      -0.55548
133.042,10.12667,      -0.55593
133.559,10.17833,      -0.55638
134.079,10.23000,      -0.55684
134.592,10.28167,      -0.55728
135.109,10.33333,      -0.55762
135.627,10.38500,      -0.55807
136.142,10.43667,      -0.55822
136.659,10.48833,      -0.55867
137.181,10.54000,      -0.55872
137.697,10.59167,      -0.55866
138.216,10.64333,      -0.55901
138.732,10.69500,      -0.55925
139.25,10.74667,      -0.55969
139.765,10.79833,      -0.56012
140.284,10.85000,      -0.56067
140.8,10.90167,      -0.56111
141.32,10.95333,      -0.56145
141.834,11.00500,      -0.56189
142.352,11.05667,      -0.56233
142.871,11.10833,      -0.56277
143.387,11.16000,      -0.56321
143.901,11.21167,      -0.56384
144.418,11.26333,      -0.56438
144.937,11.31500,      -0.56502
145.456,11.36667,      -0.56546
145.971,11.41833,      -0.56569
146.488,11.47000,      -0.56603
147.005,11.52167,      -0.56655
147.521,11.57333,      -0.56729
148.038,11.62500,      -0.56773
148.555,11.67667,      -0.56836
149.071,11.72833,      -0.56909
149.585,11.78000,      -0.56992
150.102,11.83167,      -0.57035
150.619,11.88333,      -0.57079
151.134,11.93500,      -0.57122
151.651,11.98667,      -0.57165
152.169,12.03833,      -0.57219
152.686,12.09000,      -0.57282
153.202,12.14167,      -0.57365
153.718,12.19333,      -0.57418
154.237,12.24500,      -0.57492
154.748,12.29667,      -0.57583
155.269,12.34833,      -0.57667
155.788,12.40000,      -0.57740
156.305,12.45167,      -0.57823
156.821,12.50333,      -0.57915
157.34,12.55500,      -0.57999
157.849,12.60667,      -0.58080
158.364,12.65833,      -0.58153
158.883,12.71000,      -0.58236
159.404,12.76167,      -0.58340
159.919,12.81333,      -0.58463
160.438,12.86500,      -0.58525
160.954,12.91667,      -0.58638
161.468,12.96833,      -0.58830
161.984,13.02000,      -0.58983
162.503,13.07167,      -0.59165
163.018,13.12333,      -0.59268
163.537,13.17500,      -0.59371
164.052,13.22667,      -0.59453
164.568,13.27833,      -0.59536
165.085,13.33000,      -0.59609
165.601,13.38167,      -0.59731
166.115,13.43333,      -0.59863
166.632,13.48500,      -0.59977
167.151,13.53667,      -0.60109
167.667,13.58833,      -0.60253
168.181,13.64000,      -0.60404
168.7,13.69167,      -0.60577
169.218,13.74333,      -0.60780
169.732,13.79500,      -0.60992
170.249,13.84667,      -0.61175
170.767,13.89833,      -0.61358
171.282,13.95000,      -0.61520
171.803,14.00167,      -0.61653
172.315,14.05333,      -0.61796
172.833,14.10500,      -0.61938
173.349,14.15667,      -0.62111
173.864,14.20833,      -0.62353
174.382,14.26000,      -0.62606
174.898,14.31167,      -0.62859
175.416,14.36333,      -0.63062
175.931,14.41500,      -0.63274
176.446,14.46667,      -0.63497
176.963,14.51833,      -0.63740
177.482,14.57000,      -0.63923
177.998,14.62167,      -0.64156
178.516,14.67333,      -0.64408
179.034,14.72500,      -0.64661
179.551,14.77667,      -0.64904
180.068,14.82833,      -0.65187
180.585,14.88000,      -0.65470
181.107,14.93167,      -0.65763
181.621,14.98333,      -0.66046
182.141,15.03500,      -0.66339
182.657,15.08667,      -0.66662
183.169,15.13833,      -0.66954
183.686,15.19000,      -0.67287
184.203,15.24167,      -0.67590
184.72,15.29333,      -0.67964
185.236,15.34500,      -0.68307
185.75,15.39667,      -0.68690
186.268,15.44833,      -0.69063
186.786,15.50000,      -0.69456
187.304,15.55167,      -0.69890
187.816,15.60333,      -0.70313
188.333,15.65500,      -0.70776
188.85,15.70667,      -0.71230
189.369,15.75833,      -0.71714
189.883,15.81000,      -0.72157
190.401,15.86167,      -0.72651
190.917,15.91333,      -0.73194
191.435,15.96500,      -0.73728
191.952,16.01667,      -0.74262
192.471,16.06833,      -0.74776
192.988,16.12000,      -0.75379
193.506,16.17167,      -0.76003
194.024,16.22333,      -0.76667
194.541,16.27500,      -0.77261
195.06,16.32667,      -0.77885
195.576,16.37833,      -0.78489
196.094,16.43000,      -0.79133
196.609,16.48167,      -0.79817
197.126,16.53333,      -0.80461
197.644,16.58500,      -0.81145
198.159,16.63667,      -0.81860
198.675,16.68833,      -0.82604
199.191,16.74000,      -0.83338
199.709,16.79167,      -0.84073
200.225,16.84333,      -0.84787
200.741,16.89500,      -0.85582
201.256,16.94667,      -0.86406
201.771,16.99833,      -0.87161
202.286,17.05000,      -0.87995
202.803,17.10167,      -0.88750
203.319,17.15333,      -0.89555
203.836,17.20500,      -0.90340
204.355,17.25667,      -0.91225
204.872,17.30833,      -0.92029
205.388,17.36000,      -0.92894
205.91,17.41167,      -0.93789
206.424,17.46333,      -0.94614
206.939,17.51500,      -0.95498
207.46,17.56667,      -0.96303
207.974,17.61833,      -0.97148
208.492,17.67000,      -0.97943
209.008,17.72167,      -0.98787
209.526,17.77333,      -0.99582
210.039,17.82500,      -1.00397
210.559,17.87667,      -1.01262
211.075,17.92833,      -1.02067
211.591,17.98000,      -1.02931
212.109,18.03167,      -1.03746
212.625,18.08333,      -1.04561
213.144,18.13500,      -1.05356
213.659,18.18667,      -1.06191
214.174,18.23833,      -1.06946
214.69,18.29000,      -1.07791
215.205,18.34167,      -1.08596
215.721,18.39333,      -1.09361
216.239,18.44500,      -1.10166
216.758,18.49667,      -1.10911
217.274,18.54833,      -1.11706
217.79,18.60000,      -1.12421
218.307,18.65167,      -1.13206
218.823,18.70333,      -1.13931
219.338,18.75500,      -1.14686
219.857,18.80667,      -1.15391
220.372,18.85833,      -1.16146
220.889,18.91000,      -1.16971
221.406,18.96167,      -1.17716
221.923,19.01333,      -1.18501
222.438,19.06500,      -1.19226
222.958,19.11667,      -1.19961
223.473,19.16833,      -1.20716
223.99,19.22000,      -1.21451
224.508,19.27167,      -1.22257
225.025,19.32333,      -1.23052
225.542,19.37500,      -1.23847
226.059,19.42667,      -1.24632
226.576,19.47833,      -1.25437
227.092,19.53000,      -1.26222
227.611,19.58167,      -1.27067
228.126,19.63333,      -1.27842
228.642,19.68500,      -1.28697
229.158,19.73667,      -1.29532
229.675,19.78833,      -1.30358
230.19,19.84000,      -1.31293
230.709,19.89167,      -1.32128
231.225,19.94333,      -1.33043
231.742,19.99500,      -1.33918
232.263,20.04667,      -1.34904
232.78,20.09833,      -1.35819
233.297,20.15000,      -1.36824
233.813,20.20167,      -1.37839
234.327,20.25333,      -1.38804
234.846,20.30500,      -1.39909
235.358,20.35667,      -1.40954
235.877,20.40833,      -1.42050
236.392,20.46000,      -1.43115
236.909,20.51167,      -1.44240
237.423,20.56333,      -1.45365
237.938,20.61500,      -1.46550
238.455,20.66667,      -1.47726
238.97,20.71833,      -1.48921
239.485,20.77000,      -1.50166
240.003,20.82167,      -1.51412
240.52,20.87333,      -1.52757
241.037,20.92500,      -1.54032
241.554,20.97667,      -1.55417
242.068,21.02833,      -1.58092
242.586,21.08000,      -1.59068
243.1,21.13167,      -1.60263
243.617,21.18333,      -1.61468
244.133,21.23500,      -1.64093
244.65,21.28667,      -1.65059
245.167,21.33833,      -1.66254
245.684,21.39000,      -1.67459
246.199,21.44167,      -1.70274
246.717,21.49333,      -1.71269
247.233,21.54500,      -1.72745
247.749,21.59667,      -1.75290
248.266,21.64833,      -1.76975
248.783,21.70000,      -1.78780
249.298,21.75167,      -1.80475
249.816,21.80333,      -1.82251
250.331,21.85500,      -1.83596
250.848,21.90667,      -1.85931
251.365,21.95833,      -1.87656
251.88,22.01000,      -1.89631
252.399,22.06167,      -1.91577
252.914,22.11333,      -1.93372
253.428,22.16500,      -1.95367
253.948,22.21667,      -1.97262
254.464,22.26833,      -1.99227
254.977,22.32000,      -2.01253
255.498,22.37167,      -2.03288
256.013,22.42333,      -2.05243
256.531,22.47500,      -2.07328
257.048,22.52667,      -2.09423
257.564,22.57833,      -2.11448
258.081,22.63000,      -2.13684
258.596,22.68167,      -2.15759
259.114,22.73333,      -2.17884
259.629,22.78500,      -2.19979
260.146,22.83667,      -2.22214
260.662,22.88833,      -2.24269
261.178,22.94000,      -2.26434
261.693,22.99167,      -2.28659
262.211,23.04333,      -2.30734
262.727,23.09500,      -2.32989
263.246,23.14667,      -2.35125
263.76,23.19833,      -2.37370
264.279,23.25000,      -2.39525
264.798,23.30167,      -2.41810
265.317,23.35333,      -2.44075
265.832,23.40500,      -2.46200
266.351,23.45667,      -2.48555
266.866,23.50833,      -2.50650
267.381,23.56000,      -2.52925
267.898,23.61167,      -2.55050
268.413,23.66333,      -2.57385
268.93,23.71500,      -2.59560
269.444,23.76667,      -2.61925
269.959,23.81833,      -2.64080
270.475,23.87000,      -2.66415
270.99,23.92167,      -2.68750
271.507,23.97333,      -2.70884
272.023,24.02500,      -2.73149
272.542,24.07667,      -2.75274
273.059,24.12833,      -2.77549
273.574,24.18000,      -2.79694
274.095,24.23167,      -2.81939
274.609,24.28333,      -2.84214
275.127,24.33500,      -2.86329
275.644,24.38667,      -2.88503
276.16,24.43833,      -2.90688
276.673,24.49000,      -2.92993
277.188,24.54167,      -2.95048
277.706,24.59333,      -2.97293
278.222,24.64500,      -2.99387
278.737,24.69667,      -3.01572
279.255,24.74833,      -3.03787
279.768,24.80000,      -3.05872
280.286,24.85167,      -3.08076
280.801,24.90333,      -3.10111
281.32,24.95500,      -3.12396
281.833,25.00667,      -3.14500
282.35,25.05833,      -3.16655
282.867,25.11000,      -3.18630
283.384,25.16167,      -3.20814
283.9,25.21333,      -3.23029
284.418,25.26500,      -3.25053
284.933,25.31667,      -3.27208
285.45,25.36833,      -3.29243
285.967,25.42000,      -3.31437
286.482,25.47167,      -3.33452
286.996,25.52333,      -3.35556
287.51,25.57500,      -3.37571
288.026,25.62667,      -3.39695
288.543,25.67833,      -3.41910
289.06,25.73000,      -3.43924
289.573,25.78167,      -3.46129
290.091,25.83333,      -3.48113
290.605,25.88500,      -3.50247
291.125,25.93667,      -3.52182
291.648,25.98833,      -3.54336
292.168,26.04000,      -3.56370
292.685,26.09167,      -3.58514
293.203,26.14333,      -3.60689
293.719,26.19500,      -3.62723
294.233,26.24667,      -3.64917
294.744,26.29833,      -3.66912
295.267,26.35000,      -3.69096
295.788,26.40167,      -3.71150
296.303,26.45333,      -3.73324
296.814,26.50500,      -3.75448
297.329,26.55667,      -3.77722
297.846,26.60833,      -3.79966
298.362,26.66000,      -3.82061
298.878,26.71167,      -3.84355
299.396,26.76333,      -3.86559
299.912,26.81500,      -3.88863
300.428,26.86667,      -3.91047
300.947,26.91833,      -3.93391
301.462,26.97000,      -3.95675
301.978,27.02167,      -3.98039
302.492,27.07333,      -4.00433
303.012,27.12500,      -4.02707
303.53,27.17667,      -4.05201
304.049,27.22833,      -4.07535
304.567,27.28000,      -4.10149
305.081,27.33167,      -4.12573
305.595,27.38333,      -4.15167
306.112,27.43500,      -4.17641
306.627,27.48667,      -4.20315
307.144,27.53833,      -4.23059
307.661,27.59000,      -4.25623
308.177,27.64167,      -4.28407
308.69,27.69333,      -4.31111
309.208,27.74500,      -4.34045
309.721,27.79667,      -4.36889
310.235,27.84833,      -4.39873
310.753,27.90000,      -4.42917
311.271,27.95167,      -4.45871
311.788,28.00333,      -4.49125
312.306,28.05500,      -4.52249
312.822,28.10667,      -4.55563
313.342,28.15833,      -4.58747
313.86,28.21000,      -4.62191
314.378,28.26167,      -4.65525
314.895,28.31333,      -4.69119
315.409,28.36500,      -4.72533
315.925,28.41667,      -4.76317
316.444,28.46833,      -4.80111
316.962,28.52000,      -4.83685
317.477,28.57167,      -4.87629
317.991,28.62333,      -4.91423
318.506,28.67500,      -4.95487
319.024,28.72667,      -4.99361
319.54,28.77833,      -5.03515
320.056,28.83000,      -5.07509
320.574,28.88167,      -5.11763
321.089,28.93333,      -5.16047
321.604,28.98500,      -5.20141
322.119,29.03667,      -5.24435
322.636,29.08833,      -5.28639
323.153,29.14000,      -5.33013
323.668,29.19167,      -5.37127
324.186,29.24333,      -5.41511
324.702,29.29500,      -5.45595
325.22,29.34667,      -5.49919
325.737,29.39833,      -5.54233
326.255,29.45000,      -5.58227
326.774,29.50167,      -5.62531
327.289,29.55333,      -5.66474
327.807,29.60500,      -5.70578
328.327,29.65667,      -5.74382
328.844,29.70833,      -5.78326
329.357,29.76000,      -5.81920
329.876,29.81167,      -5.85784
330.393,29.86333,      -5.89458
330.91,29.91500,      -5.92792
331.424,29.96667,      -5.96236
331.941,30.01833,      -5.99380
332.457,30.07000,      -6.02584
332.97,30.12167,      -6.05558
333.486,30.17333,      -6.08512
334.004,30.22500,      -6.11205
334.519,30.27667,      -6.13959
335.038,30.32833,      -6.16643
335.554,30.38000,      -6.19017
336.073,30.43167,      -6.21431
336.587,30.48333,      -6.23635
337.105,30.53500,      -6.25778
337.619,30.58667,      -6.27712
338.137,30.63833,      -6.29696
338.651,30.69000,      -6.31480
339.167,30.74167,      -6.33254
339.68,30.79333,      -6.34388
340.198,30.84500,      -6.35541
340.714,30.89667,      -6.36855
341.229,30.94833,      -6.39119
341.747,31.00000,      -6.40113
342.26,31.05167,      -6.41107
342.78,31.10333,      -6.42240
343.293,31.15500,      -6.43344
343.811,31.20667,      -6.44518
344.325,31.25833,      -6.45632
344.844,31.31000,      -6.46635
345.357,31.36167,      -6.47709
345.873,31.41333,      -6.48623
346.39,31.46500,      -6.49566
346.908,31.51667,      -6.50460
347.421,31.56833,      -6.51334
347.938,31.62000,      -6.52177
348.458,31.67167,      -6.53041
348.972,31.72333,      -6.53875
349.489,31.77500,      -6.54618
350.004,31.82667,      -6.55372
350.521,31.87833,      -6.56106
351.039,31.93000,      -6.56809
351.554,31.98167,      -6.57543
352.069,32.03333,      -6.58327
352.584,32.08500,      -6.59030
353.1,32.13667,      -6.59754
353.618,32.18833,      -6.60427
354.137,32.24000,      -6.61060
354.652,32.29167,      -6.61744
355.167,32.34333,      -6.62308
355.685,32.39500,      -6.62921
356.203,32.44667,      -6.63485
356.721,32.49833,      -6.64118
357.24,32.55000,      -6.64672
357.754,32.60167,      -6.65305
358.271,32.65333,      -6.65949
358.785,32.70500,      -6.66492
359.302,32.75667,      -6.67086
359.816,32.80833,      -6.67619
360.334,32.86000,      -6.68172
360.851,32.91167,      -6.68716
361.37,32.96333,      -6.69279
361.886,33.01500,      -6.69852
362.402,33.06667,      -6.70416
362.918,33.11833,      -6.70979
363.434,33.17000,      -6.71483
363.95,33.22167,      -6.71976
364.467,33.27333,      -6.72489
364.982,33.32500,      -6.73022
365.497,33.37667,      -6.73516
366.012,33.42833,      -6.74059
366.53,33.48000,      -6.74552
367.046,33.53167,      -6.75095
367.562,33.58333,      -6.75589
368.08,33.63500,      -6.76092
368.598,33.68667,      -6.76625
369.115,33.73833,      -6.77098
369.632,33.79000,      -6.77601
370.148,33.84167,      -6.78054
370.663,33.89333,      -6.78588
371.184,33.94500,      -6.79040
371.7,33.99667,      -6.79544
372.216,34.04833,      -6.80107
372.732,34.10000,      -6.80560
373.249,34.15167,      -6.81043
373.767,34.20333,      -6.81456
374.28,34.25500,      -6.81979
374.797,34.30667,      -6.82442
375.311,34.35833,      -6.82925
375.827,34.41000,      -6.83428
376.345,34.46167,      -6.83871
376.862,34.51333,      -6.84344
377.377,34.56500,      -6.84797
377.894,34.61667,      -6.85250
378.408,34.66833,      -6.85683
378.925,34.72000,      -6.86096
379.439,34.77167,      -6.86489
379.958,34.82333,      -6.87011
380.474,34.87500,      -6.87444
380.99,34.92667,      -6.87937
381.503,34.97833,      -6.88410
382.018,35.03000,      -6.88803
382.534,35.08167,      -6.89235
383.051,35.13333,      -6.89668
383.566,35.18500,      -6.90111
384.081,35.23667,      -6.90544
384.597,35.28833,      -6.90996
385.114,35.34000,      -6.91439
385.629,35.39167,      -6.91831
386.148,35.44333,      -6.92294
386.664,35.49500,      -6.92677
387.177,35.54667,      -6.93129
387.695,35.59833,      -6.93552
388.211,35.65000,      -6.93984
388.73,35.70167,      -6.94397
389.248,35.75333,      -6.94819
389.764,35.80500,      -6.95241
390.287,35.85667,      -6.95584
390.798,35.90833,      -6.96157
391.314,35.96000,      -6.96559
391.832,36.01167,      -6.96931
392.346,36.06333,      -6.97274
392.864,36.11500,      -6.97716
393.38,36.16667,      -6.98129
393.893,36.21833,      -6.98561
394.414,36.27000,      -6.99003
394.927,36.32167,      -6.99406
395.444,36.37333,      -6.99848
395.959,36.42500,      -7.00270
396.473,36.47667,      -7.00672
396.993,36.52833,      -7.01034
397.507,36.58000,      -7.01457
398.022,36.63167,      -7.01839
398.54,36.68333,      -7.02291
399.054,36.73500,      -7.02733
399.569,36.78667,      -7.03125
400.088,36.83833,      -7.03557
400.599,36.89000,      -7.03899
401.121,36.94167,      -7.04261
401.636,36.99333,      -7.04603
402.153,37.04500,      -7.04985
402.67,37.09667,      -7.05337
403.184,37.14833,      -7.05719
403.698,37.20000,      -7.06131
404.217,37.25167,      -7.06543
404.732,37.30333,      -7.06935
405.247,37.35500,      -7.07297
405.764,37.40667,      -7.07689
406.279,37.45833,      -7.08081
406.796,37.51000,      -7.08503
407.312,37.56167,      -7.08854
407.828,37.61333,      -7.09236
408.347,37.66500,      -7.09628
408.865,37.71667,      -7.10050
409.38,37.76833,      -7.10512
409.9,37.82000,      -7.10903
410.416,37.87167,      -7.11275
410.936,37.92333,      -7.11637
411.453,37.97500,      -7.12009
411.967,38.02667,      -7.12351
412.483,38.07833,      -7.12722
413,38.13000,      -7.13104
413.517,38.18167,      -7.13496
414.034,38.23333,      -7.13867
414.551,38.28500,      -7.14179
415.068,38.33667,      -7.14531
415.586,38.38833,      -7.14872
416.102,38.44000,      -7.15234
416.619,38.49167,      -7.15596
417.131,38.54333,      -7.15958
417.652,38.59500,      -7.16329
418.167,38.64667,      -7.16691
418.682,38.69833,      -7.17093
419.195,38.75000,      -7.17454
419.714,38.80167,      -7.17805
420.232,38.85333,      -7.18167
420.746,38.90500,      -7.18529
421.261,38.95667,      -7.18830
421.775,39.00833,      -7.19192
422.293,39.06000,      -7.19573
422.809,39.11167,      -7.19975
423.333,39.16333,      -7.20346
423.849,39.21500,      -7.20687
424.365,39.26667,      -7.21039
424.879,39.31833,      -7.21371
425.394,39.37000,      -7.21722
425.909,39.42167,      -7.22054
426.42,39.47333,      -7.22406
426.937,39.52500,      -7.22787
427.457,39.57667,      -7.23138
427.971,39.62833,      -7.23469
428.487,39.68000,      -7.23751
429.004,39.73167,      -7.24072
429.523,39.78333,      -7.24383
430.038,39.83500,      -7.24694
430.554,39.88667,      -7.25026
431.073,39.93833,      -7.25337
431.588,39.99000,      -7.25679
432.102,40.04167,      -7.26070
432.616,40.09333,      -7.26411
433.131,40.14500,      -7.26743
433.643,40.19667,      -7.27074
434.16,40.24833,      -7.27385
434.677,40.30000,      -7.27726
435.194,40.35167,      -7.28017
435.713,40.40333,      -7.28298
436.232,40.45500,      -7.28619
436.75,40.50667,      -7.28940
437.266,40.55833,      -7.29252
437.778,40.61000,      -7.29613
438.294,40.66167,      -7.29954
438.806,40.71333,      -7.30246
439.325,40.76500,      -7.30577
439.839,40.81667,      -7.30838
440.359,40.86833,      -7.31148
440.875,40.92000,      -7.31490
441.393,40.97167,      -7.31800
441.912,41.02333,      -7.32101
442.428,41.07500,      -7.32383
442.945,41.12667,      -7.32724
443.462,41.17833,      -7.33015
443.977,41.23000,      -7.33316
444.495,41.28167,      -7.33587
445.012,41.33333,      -7.33878
445.526,41.38500,      -7.34189
446.041,41.43667,      -7.34480
446.557,41.48833,      -7.34811
447.071,41.54000,      -7.35132
447.589,41.59167,      -7.35423
448.103,41.64333,      -7.35694
448.62,41.69500,      -7.35964
449.136,41.74667,      -7.36215
449.658,41.79833,      -7.36536
450.168,41.85000,      -7.36787
450.684,41.90167,      -7.37028
451.202,41.95333,      -7.37358
451.719,42.00500,      -7.37649
452.232,42.05667,      -7.37920
452.754,42.10833,      -7.38201
453.272,42.16000,      -7.38501
453.788,42.21167,      -7.38742
454.306,42.26333,      -7.39003
454.821,42.31500,      -7.39264
455.339,42.36667,      -7.39555
455.855,42.41833,      -7.39855
456.369,42.47000,      -7.40116
456.886,42.52167,      -7.40387
457.404,42.57333,      -7.40677
457.917,42.62500,      -7.40998
458.435,42.67667,      -7.41259
458.95,42.72833,      -7.41530
459.465,42.78000,      -7.41760
459.98,42.83167,      -7.42011
460.496,42.88333,      -7.42252
461.012,42.93500,      -7.42502
461.527,42.98667,      -7.42743
462.043,43.03833,      -7.42983
462.559,43.09000,      -7.43234
463.074,43.14167,      -7.43454
463.592,43.19333,      -7.43685
464.11,43.24500,      -7.43925
464.626,43.29667,      -7.44146
465.141,43.34833,      -7.44386
465.657,43.40000,      -7.44647
466.174,43.45167,      -7.44917
466.688,43.50333,      -7.45228
467.205,43.55500,      -7.45528
467.721,43.60667,      -7.45739
468.238,43.65833,      -7.45909
468.754,43.71000,      -7.46139
469.269,43.76167,      -7.46380
469.783,43.81333,      -7.46621
470.3,43.86500,      -7.46821
470.816,43.91667,      -7.47061
471.333,43.96833,      -7.47291
471.849,44.02000,      -7.47512
472.365,44.07167,      -7.47702
472.881,44.12333,      -7.47932
473.398,44.17500,      -7.48163
473.914,44.22667,      -7.48393
474.429,44.27833,      -7.48603
474.947,44.33000,      -7.48793
475.464,44.38167,      -7.49014
475.981,44.43333,      -7.49234
476.499,44.48500,      -7.49464
477.015,44.53667,      -7.49664
477.531,44.58833,      -7.49885
478.043,44.64000,      -7.50115
478.555,44.69167,      -7.50326
479.071,44.74333,      -7.50546
479.588,44.79500,      -7.50755
480.108,44.84667,      -7.50955
480.625,44.89833,      -7.51165
481.143,44.95000,      -7.51406
481.659,45.00167,      -7.51566
482.176,45.05333,      -7.51766
482.691,45.10500,      -7.52026
483.21,45.15667,      -7.52246
483.726,45.20833,      -7.52426
484.239,45.26000,      -7.52646
484.755,45.31167,      -7.52856
485.274,45.36333,      -7.53056
485.791,45.41500,      -7.53246
486.307,45.46667,      -7.53426
486.827,45.51833,      -7.53626
487.341,45.57000,      -7.53806
487.858,45.62167,      -7.53936
488.375,45.67333,      -7.54086
488.89,45.72500,      -7.54256
489.406,45.77667,      -7.54476
489.924,45.82833,      -7.54696
490.44,45.88000,      -7.54906
490.953,45.93167,      -7.55136
491.469,45.98333,      -7.55376
491.983,46.03500,      -7.55576
492.497,46.08667,      -7.55736
493.015,46.13833,      -7.55905
493.533,46.19000,      -7.56125
494.048,46.24167,      -7.56265
494.563,46.29333,      -7.56405
495.081,46.34500,      -7.56564
495.595,46.39667,      -7.56695
496.11,46.44833,      -7.56844
496.626,46.50000,      -7.57034
497.142,46.55167,      -7.57254
497.66,46.60333,      -7.57483
498.174,46.65500,      -7.57683
498.692,46.70667,      -7.57833
499.206,46.75833,      -7.57972
499.724,46.81000,      -7.58112
500.241,46.86167,      -7.58252
500.756,46.91333,      -7.58391
501.268,46.96500,      -7.58592
501.788,47.01667,      -7.58831
502.306,47.06833,      -7.59050
502.822,47.12000,      -7.59240
503.336,47.17167,      -7.59420
503.854,47.22333,      -7.59589
504.369,47.27500,      -7.59759
504.888,47.32667,      -7.59918
505.407,47.37833,      -7.60048
505.924,47.43000,      -7.60197
506.438,47.48167,      -7.60357
506.952,47.53333,      -7.60517
507.467,47.58500,      -7.60667
507.983,47.63667,      -7.60806
508.5,47.68833,      -7.60935
509.016,47.74000,      -7.61065
509.534,47.79167,      -7.61174
510.052,47.84333,      -7.61284
510.569,47.89500,      -7.61423
511.084,47.94667,      -7.61563
511.599,47.99833,      -7.61753
512.114,48.05000,      -7.61992
512.632,48.10167,      -7.62202
513.15,48.15333,      -7.62401
513.664,48.20500,      -7.62611
514.179,48.25667,      -7.62760
514.696,48.30833,      -7.62899
515.206,48.36000,      -7.63039
515.726,48.41167,      -7.63129
516.243,48.46333,      -7.63228
516.759,48.51500,      -7.63327
517.279,48.56667,      -7.63496
517.792,48.61833,      -7.63606
518.309,48.67000,      -7.63775
518.825,48.72167,      -7.63925
519.342,48.77333,      -7.64064
519.855,48.82500,      -7.64244
520.37,48.87667,      -7.64423
520.889,48.92833,      -7.64582
521.408,48.98000,      -7.64721
521.921,49.03167,      -7.64841
522.438,49.08333,      -7.64940
522.953,49.13500,      -7.65080
523.469,49.18667,      -7.65209
523.984,49.23833,      -7.65328
524.502,49.29000,      -7.65517
525.019,49.34167,      -7.65737
525.535,49.39333,      -7.65896
526.052,49.44500,      -7.66015
526.565,49.49667,      -7.66145
527.084,49.54833,      -7.66254
527.601,49.60000,      -7.66383
528.118,49.65167,      -7.66482
528.635,49.70333,      -7.66571
529.152,49.75500,      -7.66670
529.667,49.80667,      -7.66799
530.183,49.85833,      -7.66919
530.701,49.91000,      -7.67028
531.217,49.96167,      -7.67167
531.733,50.01333,      -7.67286
532.249,50.06500,      -7.67385
532.767,50.11667,      -7.67514
533.279,50.16833,      -7.67624
533.794,50.22000,      -7.67773
534.309,50.27167,      -7.67942
534.826,50.32333,      -7.68091
535.343,50.37500,      -7.68220
535.857,50.42667,      -7.68359
536.374,50.47833,      -7.68458
536.892,50.53000,      -7.68597
537.407,50.58167,      -7.68726
537.923,50.63333,      -7.68855
538.44,50.68500,      -7.68974
538.956,50.73667,      -7.69063
539.471,50.78833,      -7.69172
539.985,50.84000,      -7.69281
540.501,50.89167,      -7.69370
541.017,50.94333,      -7.69489
541.533,50.99500,      -7.69638
542.053,51.04667,      -7.69736
542.566,51.09833,      -7.69876
543.081,51.15000,      -7.69994
543.598,51.20167,      -7.70083
544.115,51.25333,      -7.70192
544.632,51.30500,      -7.70331
545.147,51.35667,      -7.70460
545.663,51.40833,      -7.70539
546.178,51.46000,      -7.70688
546.694,51.51167,      -7.70816
547.21,51.56333,      -7.70955
547.726,51.61500,      -7.71064
548.244,51.66667,      -7.71162
548.764,51.71833,      -7.71281
549.279,51.77000,      -7.71410
549.792,51.82167,      -7.71519
550.311,51.87333,      -7.71607
550.829,51.92500,      -7.71726
551.345,51.97667,      -7.71844
551.863,52.02833,      -7.71973
552.38,52.08000,      -7.72112
552.894,52.13167,      -7.72211
553.412,52.18333,      -7.72339
553.93,52.23500,      -7.72427
554.444,52.28667,      -7.72546
554.961,52.33833,      -7.72645
555.474,52.39000,      -7.72744
555.995,52.44167,      -7.72862
556.513,52.49333,      -7.72960
557.032,52.54500,      -7.73069
557.546,52.59667,      -7.73187
558.061,52.64833,      -7.73296
558.579,52.70000,      -7.73404
559.095,52.75167,      -7.73503
559.611,52.80333,      -7.73601
560.128,52.85500,      -7.73720
560.643,52.90667,      -7.73808
561.161,52.95833,      -7.73867
561.677,53.01000,      -7.73955
562.195,53.06167,      -7.74043
562.714,53.11333,      -7.74131
563.226,53.16500,      -7.74250
563.744,53.21667,      -7.74358
564.259,53.26833,      -7.74457
564.777,53.32000,      -7.74565
565.293,53.37167,      -7.74663
565.813,53.42333,      -7.74771
566.327,53.47500,      -7.74900
566.844,53.52667,      -7.74988
567.362,53.57833,      -7.75086
567.877,53.63000,      -7.75215
568.393,53.68167,      -7.75333
568.912,53.73333,      -7.75431
569.428,53.78500,      -7.75559
569.945,53.83667,      -7.75667
570.464,53.88833,      -7.75785
570.979,53.94000,      -7.75893
571.497,53.99167,      -7.75971
572.014,54.04333,      -7.76070
572.528,54.09500,      -7.76158
573.047,54.14667,      -7.76246
573.563,54.19833,      -7.76324
574.08,54.25000,      -7.76402
574.597,54.30167,      -7.76500
575.114,54.35333,      -7.76558
575.631,54.40500,      -7.76636
576.145,54.45667,      -7.76674
576.664,54.50833,      -7.76762
577.179,54.56000,      -7.76890
577.696,54.61167,      -7.77028
578.216,54.66333,      -7.77135
578.731,54.71500,      -7.77263
579.246,54.76667,      -7.77411
579.765,54.81833,      -7.77499
580.283,54.87000,      -7.77607
580.798,54.92167,      -7.77705
581.314,54.97333,      -7.77833
581.831,55.02500,      -7.77930
582.346,55.07667,      -7.78028
582.863,55.12833,      -7.78096
583.381,55.18000,      -7.78164
583.895,55.23167,      -7.78282
584.41,55.28333,      -7.78379
584.927,55.33500,      -7.78497
585.444,55.38667,      -7.78555
585.964,55.43833,      -7.78632
586.479,55.49000,      -7.78720
586.998,55.54167,      -7.78847
587.514,55.59333,      -7.78935
588.03,55.64500,      -7.79002
588.545,55.69667,      -7.79090
589.063,55.74833,      -7.79217
589.58,55.80000,      -7.79315
590.1,55.85167,      -7.79372
590.616,55.90333,      -7.79420
591.135,55.95500,      -7.79477
591.653,56.00667,      -7.79584
592.17,56.05833,      -7.79692
592.684,56.11000,      -7.79820
593.2,56.16167,      -7.79907
593.714,56.21333,      -7.80005
594.231,56.26500,      -7.80122
594.747,56.31667,      -7.80219
595.264,56.36833,      -7.80307
595.78,56.42000,      -7.80384
596.297,56.47167,      -7.80441
596.818,56.52333,      -7.80518
597.334,56.57500,      -7.80615
597.85,56.62667,      -7.80713
598.369,56.67833,      -7.80840
598.884,56.73000,      -7.80937
599.401,56.78167,      -7.81044
599.917,56.83333,      -7.81142
600.433,56.88500,      -7.81199
600.952,56.93667,      -7.81286
601.467,56.98833,      -7.81353
601.985,57.04000,      -7.81440
602.499,57.09167,      -7.81537
603.021,57.14333,      -7.81634
603.536,57.19500,      -7.81711
604.053,57.24667,      -7.81788
604.569,57.29833,      -7.81865
605.087,57.35000,      -7.81932
605.6,57.40167,      -7.82009
606.117,57.45333,      -7.82096
606.631,57.50500,      -7.82183
607.148,57.55667,      -7.82280
607.662,57.60833,      -7.82387
608.179,57.66000,      -7.82494
608.697,57.71167,      -7.82611
609.213,57.76333,      -7.82708
609.729,57.81500,      -7.82795
610.246,57.86667,      -7.82891
610.764,57.91833,      -7.82958
611.284,57.97000,      -7.83014
611.8,58.02167,      -7.83061
612.316,58.07333,      -7.83138
612.832,58.12500,      -7.83185
613.354,58.17667,      -7.83251
613.869,58.22833,      -7.83308
614.387,58.28000,      -7.83384
614.898,58.33167,      -7.83502
615.413,58.38333,      -7.83568
615.93,58.43500,      -7.83655
616.444,58.48667,      -7.83732
616.962,58.53833,      -7.83818
617.476,58.59000,      -7.83945
617.991,58.64167,      -7.84041
618.507,58.69333,      -7.84158
619.025,58.74500,      -7.84264
619.544,58.79667,      -7.84341
620.061,58.84833,      -7.84377
620.581,58.90000,      -7.84413
621.098,58.95167,      -7.84490
621.614,59.00333,      -7.84586
622.129,59.05500,      -7.84673
622.643,59.10667,      -7.84730
623.159,59.15833,      -7.84856
623.675,59.21000,      -7.84942
624.197,59.26167,      -7.85018
624.714,59.31333,      -7.85115
625.231,59.36500,      -7.85201
625.751,59.41667,      -7.85317
626.268,59.46833,      -7.85403
626.785,59.52000,      -7.85470
627.298,59.57167,      -7.85547
627.812,59.62333,      -7.85613
628.328,59.67500,      -7.85649
628.841,59.72667,      -7.85706
629.36,59.77833,      -7.85772
629.875,59.83000,      -7.85808
630.394,59.88167,      -7.85874
630.914,59.93333,      -7.85950
631.43,59.98500,      -7.86046
631.945,60.03667,      -7.86172
632.464,60.08833,      -7.86248
632.978,60.14000,      -7.86294
633.493,60.19167,      -7.86341
634.015,60.24333,      -7.86396
634.529,60.29500,      -7.86413
635.045,60.34667,      -7.86479
635.561,60.39833,      -7.86555
636.076,60.45000,      -7.86651
636.593,60.50167,      -7.86747
637.108,60.55333,      -7.86823
637.623,60.60500,      -7.86899
638.138,60.65667,      -7.86955
638.654,60.70833,      -7.87001
639.171,60.76000,      -7.87067
639.691,60.81167,      -7.87143
640.206,60.86333,      -7.87209
640.723,60.91500,      -7.87315
641.239,60.96667,      -7.87381
641.757,61.01833,      -7.87486
642.274,61.07000,      -7.87532
642.789,61.12167,      -7.87588
643.306,61.17333,      -7.87644
643.819,61.22500,      -7.87680
644.336,61.27667,      -7.87716
644.852,61.32833,      -7.87782
645.366,61.38000,      -7.87868
645.882,61.43167,      -7.87943
646.402,61.48333,      -7.88019
646.915,61.53500,      -7.88065
647.432,61.58667,      -7.88111
647.948,61.63833,      -7.88146
648.467,61.69000,      -7.88252
648.981,61.74167,      -7.88348
649.501,61.79333,      -7.88423
650.017,61.84500,      -7.88479
650.532,61.89667,      -7.88525
651.051,61.94833,      -7.88600
651.565,62.00000,      -7.88676
652.081,62.05167,      -7.88752
652.596,62.10333,      -7.88837
653.112,62.15500,      -7.88923
653.628,62.20667,      -7.89029
654.143,62.25833,      -7.89054
654.662,62.31000,      -7.89079
655.178,62.36167,      -7.89095
655.695,62.41333,      -7.89131
656.214,62.46500,      -7.89186
656.729,62.51667,      -7.89242
657.244,62.56833,      -7.89317
657.759,62.62000,      -7.89373
658.278,62.67167,      -7.89458
658.794,62.72333,      -7.89544
659.31,62.77500,      -7.89659
659.829,62.82667,      -7.89745
660.347,62.87833,      -7.89820
660.865,62.93000,      -7.89875
661.382,62.98167,      -7.89921
661.897,63.03333,      -7.89986
662.411,63.08500,      -7.90042
662.929,63.13667,      -7.90097
663.445,63.18833,      -7.90143
663.958,63.24000,      -7.90188
664.474,63.29167,      -7.90224
664.991,63.34333,      -7.90259
665.505,63.39500,      -7.90284
666.022,63.44667,      -7.90320
666.537,63.49833,      -7.90325
667.054,63.55000,      -7.90360
667.572,63.60167,      -7.90426
668.087,63.65333,      -7.90521
668.604,63.70500,      -7.90616
669.119,63.75667,      -7.90651
669.633,63.80833,      -7.90707
670.149,63.86000,      -7.90762
670.662,63.91167,      -7.90838
671.178,63.96333,      -7.90923
671.694,64.01500,      -7.90998
672.213,64.06667,      -7.91093
672.731,64.11833,      -7.91148
673.251,64.17000,      -7.91223
673.766,64.22167,      -7.91298
674.284,64.27333,      -7.91353
674.8,64.32500,      -7.91419
675.319,64.37667,      -7.91454
675.837,64.42833,      -7.91459
676.355,64.48000,      -7.91464
676.872,64.53167,      -7.91469
677.387,64.58333,      -7.91534
677.902,64.63500,      -7.91600
678.413,64.68667,      -7.91685
678.927,64.73833,      -7.91770
679.441,64.79000,      -7.91835
679.959,64.84167,      -7.91910
680.474,64.89333,      -7.91975
680.993,64.94500,      -7.92060
681.511,64.99667,      -7.92135
682.029,65.04833,      -7.92230
682.546,65.10000,      -7.92265
683.067,65.15167,      -7.92270
683.584,65.20333,      -7.92305
684.095,65.25500,      -7.92340
684.614,65.30667,      -7.92385
685.125,65.35833,      -7.92430
685.642,65.41000,      -7.92495
686.156,65.46167,      -7.92561
686.674,65.51333,      -7.92635
687.188,65.56500,      -7.92680
687.704,65.61667,      -7.92715
688.22,65.66833,      -7.92750
688.736,65.72000,      -7.92775
689.254,65.77167,      -7.92800
689.77,65.82333,      -7.92825
690.287,65.87500,      -7.92830
690.8,65.92667,      -7.92875
691.316,65.97833,      -7.92960
691.833,66.03000,      -7.93075
692.351,66.08167,      -7.93169
692.87,66.13333,      -7.93244
693.392,66.18500,      -7.93278
693.907,66.23667,      -7.93363
694.426,66.28833,      -7.93448
694.943,66.34000,      -7.93493
695.463,66.39167,      -7.93518
695.977,66.44333,      -7.93543
696.496,66.49500,      -7.93558
697.015,66.54667,      -7.93562
697.528,66.59833,      -7.93547
698.046,66.65000,      -7.93562
698.566,66.70167,      -7.93627
699.081,66.75333,      -7.93682
699.598,66.80500,      -7.93757
700.115,66.85667,      -7.93851
700.63,66.90833,      -7.93936
701.143,66.96000,      -7.94071
701.658,67.01167,      -7.94206
702.171,67.06333,      -7.94281
702.689,67.11500,      -7.94315
703.207,67.16667,      -7.94290
703.725,67.21833,      -7.94285
704.244,67.27000,      -7.94359
704.763,67.32167,      -7.94454
705.279,67.37333,      -7.94549
705.792,67.42500,      -7.94664
706.31,67.47667,      -7.94719
706.827,67.52833,      -7.94753
707.346,67.58000,      -7.94778
707.864,67.63167,      -7.94803
708.375,67.68333,      -7.94808
708.893,67.73500,      -7.94863
709.409,67.78667,      -7.94957
709.923,67.83833,      -7.95042
710.441,67.89000,      -7.95117
710.958,67.94167,      -7.95161
711.476,67.99333,      -7.95186
711.997,68.04500,      -7.95201
712.515,68.09667,      -7.95235
713.034,68.14833,      -7.95250
713.551,68.20000,      -7.95275
714.07,68.25167,      -7.95309
714.584,68.30333,      -7.95354
715.097,68.35500,      -7.95459
715.61,68.40667,      -7.95574
716.121,68.45833,      -7.95649
716.638,68.51000,      -7.95694
717.151,68.56167,      -7.95739
717.669,68.61333,      -7.95773
718.187,68.66500,      -7.95808
718.703,68.71667,      -7.95852
719.218,68.76833,      -7.95877
719.736,68.82000,      -7.95922
720.253,68.87167,      -7.95946
720.769,68.92333,      -7.95991
721.286,68.97500,      -7.96056
721.803,69.02667,      -7.96110
722.322,69.07833,      -7.96165
722.841,69.13000,      -7.96199
723.357,69.18167,      -7.96254
723.875,69.23333,      -7.96279
724.388,69.28500,      -7.96304
724.898,69.33667,      -7.96359
725.416,69.38833,      -7.96433
725.933,69.44000,      -7.96507
726.455,69.49167,      -7.96572
726.976,69.54333,      -7.96636
727.498,69.59500,      -7.96670
728.011,69.64667,      -7.96725
728.522,69.69833,      -7.96780
729.039,69.75000,      -7.96835
729.554,69.80167,      -7.96859
730.071,69.85333,      -7.96894
730.588,69.90500,      -7.96928
731.102,69.95667,      -7.96953
731.62,70.00833,      -7.96957
732.138,70.06000,      -7.96982
732.654,70.11167,      -7.97026
733.167,70.16333,      -7.97101
733.682,70.21500,      -7.97156
734.201,70.26667,      -7.97170
734.716,70.31833,      -7.97204
735.233,70.37000,      -7.97249
735.75,70.42167,      -7.97293
736.268,70.47333,      -7.97327
736.788,70.52500,      -7.97402
737.303,70.57667,      -7.97496
737.819,70.62833,      -7.97551
738.336,70.68000,      -7.97605
738.853,70.73167,      -7.97649
739.371,70.78333,      -7.97684
739.888,70.83500,      -7.97738
740.406,70.88667,      -7.97752
740.922,70.93833,      -7.97787
741.439,70.99000,      -7.97821
741.958,71.04167,      -7.97875
742.473,71.09333,      -7.97929
742.989,71.14500,      -7.98004
743.505,71.19667,      -7.98048
744.021,71.24833,      -7.98083
744.536,71.30000,      -7.98117
745.057,71.35167,      -7.98151
745.572,71.40333,      -7.98195
746.089,71.45500,      -7.98229
746.607,71.50667,      -7.98313
747.123,71.55833,      -7.98378
747.642,71.61000,      -7.98411
748.158,71.66167,      -7.98486
748.676,71.71333,      -7.98550
749.191,71.76500,      -7.98614
749.705,71.81667,      -7.98689
750.218,71.86833,      -7.98733
750.736,71.92000,      -7.98807
751.253,71.97167,      -7.98821
751.775,72.02333,      -7.98824
752.29,72.07500,      -7.98878
752.809,72.12667,      -7.98942
753.324,72.17833,      -7.98976
753.835,72.23000,      -7.99061
754.352,72.28167,      -7.99155
754.868,72.33333,      -7.99209
755.38,72.38500,      -7.99223
755.898,72.43667,      -7.99217
756.415,72.48833,      -7.99250
756.929,72.54000,      -7.99294
757.442,72.59167,      -7.99328
757.959,72.64333,      -7.99392
758.477,72.69500,      -7.99426
758.991,72.74667,      -7.99470
759.514,72.79833,      -7.99513
760.029,72.85000,      -7.99537
760.548,72.90167,      -7.99561
761.063,72.95333,      -7.99585
761.577,73.00500,      -7.99629
762.092,73.05667,      -7.99712
762.611,73.10833,      -7.99786
763.129,73.16000,      -7.99849
763.645,73.21167,      -7.99903
764.161,73.26333,      -7.99937
764.675,73.31500,      -7.99970
765.19,73.36667,      -8.00054
765.701,73.41833,      -8.00148
766.219,73.47000,      -8.00321
766.741,73.52167,      -8.00414
767.26,73.57333,      -8.00468
767.776,73.62500,      -8.00501
768.298,73.67667,      -8.00505
768.812,73.72833,      -8.00488
769.325,73.78000,      -8.00472
769.842,73.83167,      -8.00466
770.357,73.88333,      -8.00459
770.872,73.93500,      -8.00472
771.389,73.98667,      -8.00526
771.906,74.03833,      -8.00619
772.42,74.09000,      -8.00732
772.935,74.14167,      -8.00776
773.45,74.19333,      -8.00839
773.971,74.24500,      -8.00902
774.484,74.29667,      -8.00955
775.001,74.34833,      -8.01009
775.518,74.40000,      -8.01072
776.038,74.45167,      -8.01085
776.554,74.50333,      -8.01118
777.066,74.55500,      -8.01151
777.587,74.60667,      -8.01204
778.102,74.65833,      -8.01257
778.62,74.71000,      -8.01340
779.136,74.76167,      -8.01413
779.65,74.81333,      -8.01466
780.165,74.86500,      -8.01529
780.683,74.91667,      -8.01552
781.201,74.96833,      -8.01565
781.718,75.02000,      -8.01598
782.235,75.07167,      -8.01651
782.749,75.12333,      -8.01704
783.266,75.17500,      -8.01737
783.78,75.22667,      -8.01770
784.299,75.27833,      -8.01782
784.813,75.33000,      -8.01785
785.335,75.38167,      -8.01827
785.855,75.43333,      -8.01880
786.376,75.48500,      -8.01892
786.898,75.53667,      -8.01925
787.413,75.58833,      -8.01977
787.929,75.64000,      -8.02020
788.445,75.69167,      -8.02063
788.961,75.74333,      -8.02095
789.475,75.79500,      -8.02168
789.991,75.84667,      -8.02221
790.504,75.89833,      -8.02253
791.026,75.95000,      -8.02255
791.54,76.00167,      -8.02298
792.058,76.05333,      -8.02400
792.577,76.10500,      -8.02482
793.096,76.15667,      -8.02545
793.613,76.20833,      -8.02587
794.134,76.26000,      -8.02599
794.65,76.31167,      -8.02601
795.17,76.36333,      -8.02643
795.689,76.41500,      -8.02715
796.207,76.46667,      -8.02777
796.723,76.51833,      -8.02790
797.239,76.57000,      -8.02812
797.747,76.62167,      -8.02845
798.262,76.67333,      -8.02927
798.771,76.72500,      -8.02999
799.287,76.77667,      -8.03051
799.502,76.79833,      -8.03063