File: data-raw/TGA/B_TGA.csv
#EXPORTTYPE:                 ,DATA SINGLE
#FILE:                       ,B.ngb-st9
#FORMAT:                     ,NETZSCH5
#FTYPE:                      ,ANSI
#IDENTITY:                   ,Saras
#DECIMAL:                    ,POINT
#SEPARATOR:                  ,COMMA
#MTYPE:                      ,TG
#INSTRUMENT:                 ,NETZSCH TG 209F1 Libra
#PROJECT:                    ,IL
#DATE/TIME:                  ,10/03/2017 9:20:53 AM (UTC+11)
#CORR. FILE:                 ,
#TEMPCAL:                    ,TCALZERO.TCX
#LABORATORY:                 ,Capture Lab
#OPERATOR:                   ,NJN
#REMARK:                     ,Training run
#SAMPLE:                     ,B
#SAMPLE MASS /mg:            ,12.0508
#MATERIAL:                   ,KHCO3
#TYPE OF CRUCIBLE:           ,Al2O3
#SAMPLE CRUCIBLE MASS /mg:   ,311.0480
#REFERENCE CRUCIBLE MASS /mg:,
#M.RANGE /mg:                ,2000
#CORR. CODE:                 ,090
#RANGE:                      ,32°C/10.0(K/min)/800°C
#SEGMENT:                    ,S1/1
#SEG. 1:                     ,32°C/10.0(K/min)/800°C

##Temp./°C,Time/min,Mass loss/mg
 31.53600, 0.00000,-1.041827e-003
 31.53800, 0.05167,-3.182843e-003
 31.59600, 0.10333,-5.141005e-003
 31.91400, 0.15500,-5.328880e-003
 32.31100, 0.20667,-4.957053e-003
 32.67700, 0.25833,-6.114289e-003
 33.05500, 0.31000,-7.220431e-003
 33.47500, 0.36167,-8.553810e-003
 33.94500, 0.41333,-9.723169e-003
 34.44000, 0.46500,-1.096367e-002
 34.96100, 0.51667,-1.243524e-002
 35.51500, 0.56833,-1.388004e-002
 36.09300, 0.62000,-1.574401e-002
 36.69300, 0.67167,-1.764290e-002
 37.30600, 0.72333,-1.951799e-002
 37.94100, 0.77500,-2.210341e-002
 38.58200, 0.82667,-2.522872e-002
 39.23000, 0.87833,-2.820385e-002
 39.88600, 0.93000,-3.171344e-002
 40.54000, 0.98167,-3.491283e-002
 41.19800, 1.03333,-3.889000e-002
 41.85000, 1.08500,-4.257826e-002
 42.49700, 1.13667,-4.593758e-002
 43.13600, 1.18833,-4.951687e-002
 43.76300, 1.24000,-5.311017e-002
 44.38900, 1.29167,-5.785242e-002
 45.00200, 1.34333,-6.175984e-002
 45.60400, 1.39500,-6.571731e-002
 46.19400, 1.44667,-7.016977e-002
 46.77400, 1.49833,-7.488833e-002
 47.34800, 1.55000,-7.976305e-002
 47.90300, 1.60167,-8.466956e-002
 48.45400, 1.65333,-8.992674e-002
 48.99400, 1.70500,-9.487479e-002
 49.53000, 1.75667,      -0.10027
 50.05500, 1.80833,      -0.10515
 50.57600, 1.86000,      -0.11054
 51.08900, 1.91167,      -0.11584
 51.59800, 1.96333,      -0.12154
 52.10100, 2.01500,      -0.12708
 52.60100, 2.06667,      -0.13273
 53.09900, 2.11833,      -0.13900
 53.59600, 2.17000,      -0.14470
 54.09000, 2.22167,      -0.15069
 54.58300, 2.27333,      -0.15648
 55.08200, 2.32500,      -0.16253
 55.57500, 2.37667,      -0.16814
 56.06800, 2.42833,      -0.17447
 56.57000, 2.48000,      -0.18076
 57.06600, 2.53167,      -0.18680
 57.56600, 2.58333,      -0.19315
 58.07000, 2.63500,      -0.19891
 58.57400, 2.68667,      -0.20558
 59.08100, 2.73833,      -0.21155
 59.58800, 2.79000,      -0.21841
 60.09900, 2.84167,      -0.22479
 60.61000, 2.89333,      -0.23123
 61.12500, 2.94500,      -0.23770
 61.63600, 2.99667,      -0.24395
 62.15200, 3.04833,      -0.25090
 62.67300, 3.10000,      -0.25737
 63.18900, 3.15167,      -0.26351
 63.70900, 3.20333,      -0.26964
 64.23100, 3.25500,      -0.27619
 64.75300, 3.30667,      -0.28244
 65.27600, 3.35833,      -0.28898
 65.79700, 3.41000,      -0.29520
 66.32100, 3.46167,      -0.30152
 66.84400, 3.51333,      -0.30816
 67.36700, 3.56500,      -0.31406
 67.89000, 3.61667,      -0.32028
 68.41200, 3.66833,      -0.32609
 68.93900, 3.72000,      -0.33222
 69.45600, 3.77167,      -0.33781
 69.97900, 3.82333,      -0.34391
 70.49900, 3.87500,      -0.35011
 71.01800, 3.92667,      -0.35562
 71.54100, 3.97833,      -0.36163
 72.05700, 4.03000,      -0.36712
 72.57900, 4.08167,      -0.37324
 73.09900, 4.13333,      -0.37874
 73.61400, 4.18500,      -0.38434
 74.13300, 4.23667,      -0.38963
 74.65000, 4.28833,      -0.39492
 75.16700, 4.34000,      -0.40023
 75.68400, 4.39167,      -0.40522
 76.20400, 4.44333,      -0.41024
 76.72000, 4.49500,      -0.41514
 77.23600, 4.54667,      -0.42013
 77.75300, 4.59833,      -0.42483
 78.26500, 4.65000,      -0.42981
 78.79000, 4.70167,      -0.43414
 79.30200, 4.75333,      -0.43842
 79.81500, 4.80500,      -0.44272
 80.33500, 4.85667,      -0.44733
 80.84800, 4.90833,      -0.45212
 81.36300, 4.96000,      -0.45593
 81.88300, 5.01167,      -0.46023
 82.40000, 5.06333,      -0.46383
 82.91500, 5.11500,      -0.46772
 83.43700, 5.16667,      -0.47124
 83.95200, 5.21833,      -0.47512
 84.47000, 5.27000,      -0.47863
 84.98300, 5.32167,      -0.48211
 85.50100, 5.37333,      -0.48540
 86.02100, 5.42500,      -0.48872
 86.53800, 5.47667,      -0.49211
 87.05200, 5.52833,      -0.49510
 87.56900, 5.58000,      -0.49818
 88.07900, 5.63167,      -0.50085
 88.60100, 5.68333,      -0.50378
 89.11900, 5.73500,      -0.50708
 89.63600, 5.78667,      -0.50978
 90.15200, 5.83833,      -0.51256
 90.67300, 5.89000,      -0.51507
 91.19000, 5.94167,      -0.51766
 91.71400, 5.99333,      -0.51987
 92.22700, 6.04500,      -0.52205
 92.74600, 6.09667,      -0.52423
 93.26700, 6.14833,      -0.52674
 93.78600, 6.20000,      -0.52912
 94.30600, 6.25167,      -0.53082
 94.82100, 6.30333,      -0.53250
 95.33800, 6.35500,      -0.53430
 95.85600, 6.40667,      -0.53648
 96.37300, 6.45833,      -0.53827
 96.88700, 6.51000,      -0.54015
 97.40600, 6.56167,      -0.54195
 97.91800, 6.61333,      -0.54353
 98.43800, 6.66500,      -0.54473
 98.94900, 6.71667,      -0.54550
 99.46500, 6.76833,      -0.54639
 99.98500, 6.82000,      -0.54762
100.501, 6.87167,      -0.54891
101.018, 6.92333,      -0.55004
101.533, 6.97500,      -0.55155
102.048, 7.02667,      -0.55295
102.564, 7.07833,      -0.55417
103.081, 7.13000,      -0.55559
103.604, 7.18167,      -0.55661
104.115, 7.23333,      -0.55760
104.634, 7.28500,      -0.55851
105.151, 7.33667,      -0.55931
105.664, 7.38833,      -0.56019
106.178, 7.44000,      -0.56099
106.693, 7.49167,      -0.56180
107.209, 7.54333,      -0.56260
107.729, 7.59500,      -0.56352
108.242, 7.64667,      -0.56430
108.758, 7.69833,      -0.56520
109.272, 7.75000,      -0.56579
109.788, 7.80167,      -0.56658
110.302, 7.85333,      -0.56726
110.82, 7.90500,      -0.56806
111.336, 7.95667,      -0.56856
111.855, 8.00833,      -0.56906
112.372, 8.06000,      -0.56975
112.89, 8.11167,      -0.57044
113.405, 8.16333,      -0.57101
113.922, 8.21500,      -0.57151
114.435, 8.26667,      -0.57198
114.953, 8.31833,      -0.57257
115.467, 8.37000,      -0.57333
115.987, 8.42167,      -0.57383
116.504, 8.47333,      -0.57440
117.022, 8.52500,      -0.57490
117.54, 8.57667,      -0.57527
118.055, 8.62833,      -0.57573
118.573, 8.68000,      -0.57631
119.088, 8.73167,      -0.57678
119.603, 8.78333,      -0.57735
120.118, 8.83500,      -0.57792
120.638, 8.88667,      -0.57860
121.153, 8.93833,      -0.57916
121.669, 8.99000,      -0.57973
122.184, 9.04167,      -0.58030
122.701, 9.09333,      -0.58107
123.216, 9.14500,      -0.58163
123.735, 9.19667,      -0.58241
124.252, 9.24833,      -0.58287
124.773, 9.30000,      -0.58365
125.285, 9.35167,      -0.58409
125.8, 9.40333,      -0.58454
126.315, 9.45500,      -0.58521
126.831, 9.50667,      -0.58577
127.35, 9.55833,      -0.58624
127.868, 9.61000,      -0.58660
128.382, 9.66167,      -0.58705
128.901, 9.71333,      -0.58761
129.42, 9.76500,      -0.58817
129.933, 9.81667,      -0.58902
130.449, 9.86833,      -0.58987
130.968, 9.92000,      -0.59043
131.49, 9.97167,      -0.59099
132.008,10.02333,      -0.59154
132.523,10.07500,      -0.59228
133.039,10.12667,      -0.59314
133.555,10.17833,      -0.59368
134.072,10.23000,      -0.59433
134.593,10.28167,      -0.59519
135.107,10.33333,      -0.59602
135.62,10.38500,      -0.59697
136.142,10.43667,      -0.59792
136.657,10.48833,      -0.59876
137.177,10.54000,      -0.59952
137.692,10.59167,      -0.60045
138.211,10.64333,      -0.60141
138.726,10.69500,      -0.60234
139.242,10.74667,      -0.60348
139.759,10.79833,      -0.60443
140.277,10.85000,      -0.60547
140.792,10.90167,      -0.60661
141.31,10.95333,      -0.60785
141.827,11.00500,      -0.60889
142.343,11.05667,      -0.61023
142.862,11.10833,      -0.61158
143.381,11.16000,      -0.61281
143.896,11.21167,      -0.61414
144.413,11.26333,      -0.61548
144.933,11.31500,      -0.61692
145.449,11.36667,      -0.61846
145.965,11.41833,      -0.62039
146.48,11.47000,      -0.62242
146.996,11.52167,      -0.62505
147.512,11.57333,      -0.62719
148.03,11.62500,      -0.62923
148.549,11.67667,      -0.63087
149.065,11.72833,      -0.63290
149.583,11.78000,      -0.63494
150.098,11.83167,      -0.63696
150.615,11.88333,      -0.63890
151.133,11.93500,      -0.64103
151.653,11.98667,      -0.64276
152.169,12.03833,      -0.64499
152.683,12.09000,      -0.64732
153.201,12.14167,      -0.64955
153.718,12.19333,      -0.65218
154.234,12.24500,      -0.65441
154.75,12.29667,      -0.65654
155.268,12.34833,      -0.65907
155.782,12.40000,      -0.66149
156.301,12.45167,      -0.66442
156.815,12.50333,      -0.66695
157.333,12.55500,      -0.66968
157.849,12.60667,      -0.67221
158.364,12.65833,      -0.67534
158.881,12.71000,      -0.67856
159.399,12.76167,      -0.68109
159.915,12.81333,      -0.68412
160.432,12.86500,      -0.68725
160.949,12.91667,      -0.69088
161.467,12.96833,      -0.69410
161.982,13.02000,      -0.69723
162.5,13.07167,      -0.70106
163.016,13.12333,      -0.70448
163.53,13.17500,      -0.70801
164.047,13.22667,      -0.71153
164.56,13.27833,      -0.71585
165.075,13.33000,      -0.71978
165.589,13.38167,      -0.72410
166.108,13.43333,      -0.72824
166.624,13.48500,      -0.73256
167.143,13.53667,      -0.73700
167.657,13.58833,      -0.74122
168.175,13.64000,      -0.74615
168.689,13.69167,      -0.75067
169.208,13.74333,      -0.75600
169.724,13.79500,      -0.76123
170.241,13.84667,      -0.76656
170.761,13.89833,      -0.77159
171.278,13.95000,      -0.77771
171.795,14.00167,      -0.78334
172.313,14.05333,      -0.78916
172.825,14.10500,      -0.79548
173.343,14.15667,      -0.80161
173.857,14.20833,      -0.80853
174.373,14.26000,      -0.81506
174.893,14.31167,      -0.82229
175.41,14.36333,      -0.82912
175.929,14.41500,      -0.83705
176.447,14.46667,      -0.84408
176.964,14.51833,      -0.85210
177.479,14.57000,      -0.86043
177.996,14.62167,      -0.86826
178.514,14.67333,      -0.87679
179.029,14.72500,      -0.88511
179.547,14.77667,      -0.89414
180.064,14.82833,      -0.90297
180.58,14.88000,      -0.91270
181.097,14.93167,      -0.92253
181.614,14.98333,      -0.93195
182.13,15.03500,      -0.94249
182.648,15.08667,      -0.95271
183.165,15.13833,      -0.96365
183.68,15.19000,      -0.97418
184.199,15.24167,      -0.98551
184.716,15.29333,      -0.99654
185.231,15.34500,      -1.00837
185.75,15.39667,      -1.02020
186.268,15.44833,      -1.03194
186.785,15.50000,      -1.04427
187.3,15.55167,      -1.05610
187.818,15.60333,      -1.06893
188.333,15.65500,      -1.08097
188.854,15.70667,      -1.09440
189.369,15.75833,      -1.10684
189.887,15.81000,      -1.12047
190.402,15.86167,      -1.13331
190.922,15.91333,      -1.14705
191.438,15.96500,      -1.16228
191.956,16.01667,      -1.18522
192.472,16.06833,      -1.19586
192.989,16.12000,      -1.20679
193.505,16.17167,      -1.22103
194.022,16.22333,      -1.24047
194.54,16.27500,      -1.25191
195.056,16.32667,      -1.26355
195.574,16.37833,      -1.27569
196.088,16.43000,      -1.29923
196.606,16.48167,      -1.30887
197.126,16.53333,      -1.32011
197.644,16.58500,      -1.33195
198.158,16.63667,      -1.35630
198.676,16.68833,      -1.36544
199.193,16.74000,      -1.37669
199.711,16.79167,      -1.38903
200.225,16.84333,      -1.41248
200.744,16.89500,      -1.42202
201.257,16.94667,      -1.43286
201.775,16.99833,      -1.44461
202.29,17.05000,      -1.45656
202.804,17.10167,      -1.47000
203.321,17.15333,      -1.49225
203.838,17.20500,      -1.50090
204.357,17.25667,      -1.51164
204.872,17.30833,      -1.52229
205.389,17.36000,      -1.53474
205.905,17.41167,      -1.54649
206.425,17.46333,      -1.55944
206.941,17.51500,      -1.57098
207.457,17.56667,      -1.58383
207.972,17.61833,      -1.59538
208.492,17.67000,      -1.60713
209.011,17.72167,      -1.61938
209.525,17.77333,      -1.63052
210.042,17.82500,      -1.64247
210.56,17.87667,      -1.65342
211.076,17.92833,      -1.66487
211.593,17.98000,      -1.67561
212.109,18.03167,      -1.68656
212.624,18.08333,      -1.69731
213.142,18.13500,      -1.70816
213.659,18.18667,      -1.71921
214.175,18.23833,      -1.72936
214.691,18.29000,      -1.74021
215.211,18.34167,      -1.75066
215.726,18.39333,      -1.76141
216.239,18.44500,      -1.77115
216.754,18.49667,      -1.78180
217.271,18.54833,      -1.79156
217.788,18.60000,      -1.80201
218.305,18.65167,      -1.81266
218.822,18.70333,      -1.82291
219.337,18.75500,      -1.83376
219.853,18.80667,      -1.84381
220.37,18.85833,      -1.85446
220.886,18.91000,      -1.86421
221.403,18.96167,      -1.87536
221.919,19.01333,      -1.88531
222.439,19.06500,      -1.89606
222.953,19.11667,      -1.90741
223.469,19.16833,      -1.91776
223.987,19.22000,      -1.92921
224.504,19.27167,      -1.93936
225.023,19.32333,      -1.95072
225.541,19.37500,      -1.96167
226.058,19.42667,      -1.97312
226.574,19.47833,      -1.98417
227.089,19.53000,      -1.99592
227.605,19.58167,      -2.00797
228.122,19.63333,      -2.01922
228.638,19.68500,      -2.03097
229.156,19.73667,      -2.04323
229.67,19.78833,      -2.05557
230.185,19.84000,      -2.06703
230.701,19.89167,      -2.07978
231.218,19.94333,      -2.10353
231.736,19.99500,      -2.11308
232.249,20.04667,      -2.12313
232.764,20.09833,      -2.13439
233.279,20.15000,      -2.14694
233.798,20.20167,      -2.17069
234.316,20.25333,      -2.18024
234.832,20.30500,      -2.19130
235.348,20.35667,      -2.20425
235.868,20.40833,      -2.22780
236.384,20.46000,      -2.23855
236.902,20.51167,      -2.25061
237.42,20.56333,      -2.26486
237.936,20.61500,      -2.28631
238.453,20.66667,      -2.29746
238.969,20.71833,      -2.32241
239.482,20.77000,      -2.33246
240,20.82167,      -2.34462
240.514,20.87333,      -2.37007
241.035,20.92500,      -2.38402
241.551,20.97667,      -2.39557
242.068,21.02833,      -2.42003
242.584,21.08000,      -2.43718
243.097,21.13167,      -2.45403
243.612,21.18333,      -2.47188
244.132,21.23500,      -2.48883
244.644,21.28667,      -2.50678
245.162,21.33833,      -2.52364
245.68,21.39000,      -2.54169
246.196,21.44167,      -2.56014
246.714,21.49333,      -2.57770
247.231,21.54500,      -2.59645
247.745,21.59667,      -2.61370
248.266,21.64833,      -2.63295
248.779,21.70000,      -2.65030
249.296,21.75167,      -2.66906
249.814,21.80333,      -2.68771
250.33,21.85500,      -2.70676
250.849,21.90667,      -2.72631
251.364,21.95833,      -2.74436
251.879,22.01000,      -2.76402
252.398,22.06167,      -2.78197
252.914,22.11333,      -2.80162
253.43,22.16500,      -2.81997
253.947,22.21667,      -2.83962
254.465,22.26833,      -2.85878
254.979,22.32000,      -2.87823
255.497,22.37167,      -2.89888
256.013,22.42333,      -2.91713
256.53,22.47500,      -2.93778
257.043,22.52667,      -2.95713
257.56,22.57833,      -2.97758
258.075,22.63000,      -2.99673
258.593,22.68167,      -3.01719
259.11,22.73333,      -3.03634
259.627,22.78500,      -3.05629
260.143,22.83667,      -3.07834
260.659,22.88833,      -3.09679
261.173,22.94000,      -3.11744
261.69,22.99167,      -3.13759
262.21,23.04333,      -3.15804
262.726,23.09500,      -3.17780
263.24,23.14667,      -3.19905
263.759,23.19833,      -3.21890
264.274,23.25000,      -3.24005
264.792,23.30167,      -3.26180
265.306,23.35333,      -3.28205
265.825,23.40500,      -3.30330
266.341,23.45667,      -3.32365
266.855,23.50833,      -3.34540
267.373,23.56000,      -3.36535
267.888,23.61167,      -3.38670
268.405,23.66333,      -3.40705
268.922,23.71500,      -3.42910
269.44,23.76667,      -3.45085
269.954,23.81833,      -3.47150
270.471,23.87000,      -3.49385
270.987,23.92167,      -3.51490
271.504,23.97333,      -3.53715
272.023,24.02500,      -3.55760
272.539,24.07667,      -3.57964
273.057,24.12833,      -3.60209
273.568,24.18000,      -3.62324
274.088,24.23167,      -3.64639
274.603,24.28333,      -3.66734
275.119,24.33500,      -3.69029
275.636,24.38667,      -3.71144
276.151,24.43833,      -3.73378
276.669,24.49000,      -3.75583
277.187,24.54167,      -3.77888
277.703,24.59333,      -3.80073
278.215,24.64500,      -3.82447
278.733,24.69667,      -3.84812
279.252,24.74833,      -3.87007
279.772,24.80000,      -3.89362
280.286,24.85167,      -3.91606
280.804,24.90333,      -3.94051
281.321,24.95500,      -3.96316
281.836,25.00667,      -3.98730
282.352,25.05833,      -4.01015
282.868,25.11000,      -4.03480
283.385,25.16167,      -4.06004
283.898,25.21333,      -4.08369
284.415,25.26500,      -4.10913
284.931,25.31667,      -4.13258
285.448,25.36833,      -4.15833
285.964,25.42000,      -4.18217
286.48,25.47167,      -4.20832
286.998,25.52333,      -4.23276
287.514,25.57500,      -4.25951
288.031,25.62667,      -4.28655
288.552,25.67833,      -4.31210
289.066,25.73000,      -4.33964
289.582,25.78167,      -4.36558
290.099,25.83333,      -4.39373
290.615,25.88500,      -4.42017
291.132,25.93667,      -4.44912
291.648,25.98833,      -4.47636
292.162,26.04000,      -4.50610
292.679,26.09167,      -4.53565
293.198,26.14333,      -4.56419
293.711,26.19500,      -4.59513
294.228,26.24667,      -4.62487
294.745,26.29833,      -4.65722
295.262,26.35000,      -4.68726
295.777,26.40167,      -4.72020
296.294,26.45333,      -4.75354
296.812,26.50500,      -4.78468
297.333,26.55667,      -4.81942
297.851,26.60833,      -4.85256
298.367,26.66000,      -4.88790
298.883,26.71167,      -4.92125
299.404,26.76333,      -4.95828
299.925,26.81500,      -4.99322
300.444,26.86667,      -5.03076
300.958,26.91833,      -5.06610
301.474,26.97000,      -5.10504
301.988,27.02167,      -5.14399
302.502,27.07333,      -5.18143
303.016,27.12500,      -5.22197
303.53,27.17667,      -5.26001
304.047,27.22833,      -5.30165
304.561,27.28000,      -5.34069
305.082,27.33167,      -5.38303
305.596,27.38333,      -5.42257
306.112,27.43500,      -5.46521
306.629,27.48667,      -5.50805
307.146,27.53833,      -5.54849
307.66,27.59000,      -5.59223
308.175,27.64167,      -5.63267
308.695,27.69333,      -5.67571
309.213,27.74500,      -5.71665
309.729,27.79667,      -5.76029
310.248,27.84833,      -5.80323
310.765,27.90000,      -5.84347
311.281,27.95167,      -5.88661
311.798,28.00333,      -5.92635
312.317,28.05500,      -5.96899
312.831,28.10667,      -6.00873
313.345,28.15833,      -6.05027
313.862,28.21000,      -6.08921
314.376,28.26167,      -6.12945
314.895,28.31333,      -6.16909
315.41,28.36500,      -6.20563
315.929,28.41667,      -6.24477
316.444,28.46833,      -6.28041
316.962,28.52000,      -6.31785
317.477,28.57167,      -6.35169
317.994,28.62333,      -6.38773
318.51,28.67500,      -6.42057
319.026,28.72667,      -6.45371
319.54,28.77833,      -6.48715
320.056,28.83000,      -6.51659
320.572,28.88167,      -6.54683
321.09,28.93333,      -6.57487
321.602,28.98500,      -6.60261
322.116,29.03667,      -6.62875
322.635,29.08833,      -6.65529
323.153,29.14000,      -6.67993
323.664,29.19167,      -6.70367
324.183,29.24333,      -6.72701
324.699,29.29500,      -6.74745
325.215,29.34667,      -6.76929
325.731,29.39833,      -6.78833
326.249,29.45000,      -6.80757
326.765,29.50167,      -6.82511
327.281,29.55333,      -6.84345
327.798,29.60500,      -6.85819
328.312,29.65667,      -6.86943
328.831,29.70833,      -6.88196
329.348,29.76000,      -6.89620
329.866,29.81167,      -6.91664
330.383,29.86333,      -6.92678
330.898,29.91500,      -6.93802
331.415,29.96667,      -6.94906
331.929,30.01833,      -6.96170
332.447,30.07000,      -6.97334
332.962,30.12167,      -6.98588
333.475,30.17333,      -6.99752
333.989,30.22500,      -7.00846
334.508,30.27667,      -7.01979
335.025,30.32833,      -7.03013
335.541,30.38000,      -7.04077
336.06,30.43167,      -7.05021
336.574,30.48333,      -7.06055
337.093,30.53500,      -7.06959
337.604,30.58667,      -7.07933
338.121,30.63833,      -7.08916
338.64,30.69000,      -7.09780
339.155,30.74167,      -7.10754
339.673,30.79333,      -7.11598
340.188,30.84500,      -7.12471
340.705,30.89667,      -7.13255
341.221,30.94833,      -7.14179
341.737,31.00000,      -7.14993
342.256,31.05167,      -7.15787
342.773,31.10333,      -7.16590
343.288,31.15500,      -7.17384
343.807,31.20667,      -7.18198
344.325,31.25833,      -7.18941
344.841,31.31000,      -7.19735
345.357,31.36167,      -7.20459
345.878,31.41333,      -7.21242
346.395,31.46500,      -7.21936
346.91,31.51667,      -7.22690
347.427,31.56833,      -7.23464
347.943,31.62000,      -7.24077
348.456,31.67167,      -7.24761
348.973,31.72333,      -7.25415
349.488,31.77500,      -7.26158
350.006,31.82667,      -7.26842
350.523,31.87833,      -7.27546
351.037,31.93000,      -7.28189
351.555,31.98167,      -7.28863
352.072,32.03333,      -7.29516
352.59,32.08500,      -7.30110
353.105,32.13667,      -7.30834
353.624,32.18833,      -7.31457
354.146,32.24000,      -7.32120
354.66,32.29167,      -7.32744
355.181,32.34333,      -7.33377
355.694,32.39500,      -7.33971
356.213,32.44667,      -7.34595
356.724,32.49833,      -7.35208
357.241,32.55000,      -7.35792
357.758,32.60167,      -7.36425
358.272,32.65333,      -7.37029
358.787,32.70500,      -7.37662
359.305,32.75667,      -7.38236
359.816,32.80833,      -7.38819
360.335,32.86000,      -7.39363
360.848,32.91167,      -7.39996
361.364,32.96333,      -7.40549
361.881,33.01500,      -7.41183
362.398,33.06667,      -7.41766
362.915,33.11833,      -7.42289
363.432,33.17000,      -7.42883
363.949,33.22167,      -7.43416
364.466,33.27333,      -7.44009
364.981,33.32500,      -7.44543
365.497,33.37667,      -7.45126
366.014,33.42833,      -7.45699
366.532,33.48000,      -7.46222
367.05,33.53167,      -7.46805
367.563,33.58333,      -7.47329
368.079,33.63500,      -7.47912
368.598,33.68667,      -7.48435
369.115,33.73833,      -7.48978
369.631,33.79000,      -7.49521
370.148,33.84167,      -7.50065
370.661,33.89333,      -7.50618
371.179,33.94500,      -7.51131
371.695,33.99667,      -7.51694
372.212,34.04833,      -7.52197
372.73,34.10000,      -7.52700
373.246,34.15167,      -7.53223
373.762,34.20333,      -7.53746
374.281,34.25500,      -7.54219
374.797,34.30667,      -7.54762
375.31,34.35833,      -7.55305
375.824,34.41000,      -7.55798
376.343,34.46167,      -7.56311
376.857,34.51333,      -7.56784
377.372,34.56500,      -7.57247
377.891,34.61667,      -7.57740
378.407,34.66833,      -7.58283
378.925,34.72000,      -7.58746
379.444,34.77167,      -7.59288
379.962,34.82333,      -7.59801
380.481,34.87500,      -7.60274
381,34.92667,      -7.60786
381.514,34.97833,      -7.61229
382.032,35.03000,      -7.61722
382.548,35.08167,      -7.62225
383.064,35.13333,      -7.62758
383.581,35.18500,      -7.63241
384.096,35.23667,      -7.63703
384.61,35.28833,      -7.64186
385.128,35.34000,      -7.64629
385.642,35.39167,      -7.65111
386.16,35.44333,      -7.65574
386.675,35.49500,      -7.66087
387.191,35.54667,      -7.66559
387.704,35.59833,      -7.67072
388.222,35.65000,      -7.67514
388.738,35.70167,      -7.68027
389.254,35.75333,      -7.68549
389.773,35.80500,      -7.69001
390.288,35.85667,      -7.69464
390.804,35.90833,      -7.69886
391.323,35.96000,      -7.70349
391.837,36.01167,      -7.70811
392.35,36.06333,      -7.71304
392.866,36.11500,      -7.71756
393.381,36.16667,      -7.72219
393.898,36.21833,      -7.72711
394.412,36.27000,      -7.73133
394.933,36.32167,      -7.73595
395.447,36.37333,      -7.74008
395.963,36.42500,      -7.74460
396.481,36.47667,      -7.74912
396.997,36.52833,      -7.75394
397.511,36.58000,      -7.75806
398.027,36.63167,      -7.76239
398.544,36.68333,      -7.76741
399.059,36.73500,      -7.77223
399.574,36.78667,      -7.77695
400.092,36.83833,      -7.78097
400.605,36.89000,      -7.78539
401.126,36.94167,      -7.78951
401.639,36.99333,      -7.79413
402.156,37.04500,      -7.79855
402.669,37.09667,      -7.80357
403.188,37.14833,      -7.80769
403.706,37.20000,      -7.81141
404.221,37.25167,      -7.81593
404.738,37.30333,      -7.82035
405.251,37.35500,      -7.82507
405.766,37.40667,      -7.82949
406.284,37.45833,      -7.83441
406.801,37.51000,      -7.83852
407.319,37.56167,      -7.84254
407.835,37.61333,      -7.84646
408.353,37.66500,      -7.85058
408.866,37.71667,      -7.85530
409.386,37.76833,      -7.85941
409.901,37.82000,      -7.86383
410.417,37.87167,      -7.86795
410.932,37.92333,      -7.87247
411.451,37.97500,      -7.87639
411.966,38.02667,      -7.88061
412.482,38.07833,      -7.88473
412.996,38.13000,      -7.88904
413.512,38.18167,      -7.89336
414.029,38.23333,      -7.89748
414.546,38.28500,      -7.90139
415.062,38.33667,      -7.90531
415.579,38.38833,      -7.90973
416.097,38.44000,      -7.91354
416.613,38.49167,      -7.91786
417.132,38.54333,      -7.92187
417.649,38.59500,      -7.92609
418.166,38.64667,      -7.93081
418.681,38.69833,      -7.93492
419.198,38.75000,      -7.93884
419.712,38.80167,      -7.94276
420.231,38.85333,      -7.94717
420.745,38.90500,      -7.95139
421.264,38.95667,      -7.95550
421.781,39.00833,      -7.95962
422.294,39.06000,      -7.96353
422.813,39.11167,      -7.96755
423.328,39.16333,      -7.97126
423.844,39.21500,      -7.97528
424.362,39.26667,      -7.97919
424.878,39.31833,      -7.98301
425.393,39.37000,      -7.98662
425.908,39.42167,      -7.99104
426.424,39.47333,      -7.99495
426.94,39.52500,      -7.99836
427.454,39.57667,      -8.00248
427.972,39.62833,      -8.00609
428.489,39.68000,      -8.00990
429.005,39.73167,      -8.01332
429.52,39.78333,      -8.01773
430.038,39.83500,      -8.02155
430.554,39.88667,      -8.02546
431.071,39.93833,      -8.02997
431.585,39.99000,      -8.03389
432.098,40.04167,      -8.03770
432.616,40.09333,      -8.04121
433.133,40.14500,      -8.04512
433.646,40.19667,      -8.04824
434.165,40.24833,      -8.05205
434.679,40.30000,      -8.05586
435.193,40.35167,      -8.05968
435.71,40.40333,      -8.06308
436.227,40.45500,      -8.06630
436.746,40.50667,      -8.07051
437.263,40.55833,      -8.07432
437.776,40.61000,      -8.07803
438.296,40.66167,      -8.08164
438.811,40.71333,      -8.08535
439.327,40.76500,      -8.08916
439.841,40.81667,      -8.09248
440.359,40.86833,      -8.09609
440.879,40.92000,      -8.09949
441.396,40.97167,      -8.10320
441.911,41.02333,      -8.10651
442.43,41.07500,      -8.11002
442.949,41.12667,      -8.11333
443.465,41.17833,      -8.11685
443.981,41.23000,      -8.11976
444.497,41.28167,      -8.12317
445.013,41.33333,      -8.12658
445.527,41.38500,      -8.12969
446.04,41.43667,      -8.13330
446.556,41.48833,      -8.13671
447.072,41.54000,      -8.14022
447.59,41.59167,      -8.14323
448.105,41.64333,      -8.14694
448.623,41.69500,      -8.14964
449.138,41.74667,      -8.15305
449.655,41.79833,      -8.15676
450.173,41.85000,      -8.15977
450.686,41.90167,      -8.16328
451.2,41.95333,      -8.16639
451.714,42.00500,      -8.16960
452.231,42.05667,      -8.17240
452.746,42.10833,      -8.17571
453.262,42.16000,      -8.17922
453.776,42.21167,      -8.18213
454.294,42.26333,      -8.18533
454.813,42.31500,      -8.18804
455.33,42.36667,      -8.19125
455.849,42.41833,      -8.19455
456.366,42.47000,      -8.19776
456.885,42.52167,      -8.20056
457.403,42.57333,      -8.20347
457.919,42.62500,      -8.20628
458.432,42.67667,      -8.20929
458.949,42.72833,      -8.21230
459.461,42.78000,      -8.21500
459.983,42.83167,      -8.21801
460.499,42.88333,      -8.22091
461.016,42.93500,      -8.22342
461.531,42.98667,      -8.22582
462.045,43.03833,      -8.22873
462.561,43.09000,      -8.23164
463.079,43.14167,      -8.23474
463.595,43.19333,      -8.23785
464.11,43.24500,      -8.24065
464.627,43.29667,      -8.24356
465.143,43.34833,      -8.24616
465.659,43.40000,      -8.24897
466.176,43.45167,      -8.25147
466.695,43.50333,      -8.25407
467.213,43.55500,      -8.25708
467.726,43.60667,      -8.25988
468.245,43.65833,      -8.26259
468.76,43.71000,      -8.26519
469.279,43.76167,      -8.26809
469.798,43.81333,      -8.27070
470.315,43.86500,      -8.27340
470.833,43.91667,      -8.27550
471.35,43.96833,      -8.27781
471.864,44.02000,      -8.27991
472.378,44.07167,      -8.28262
472.893,44.12333,      -8.28503
473.406,44.17500,      -8.28733
473.92,44.22667,      -8.28983
474.436,44.27833,      -8.29233
474.953,44.33000,      -8.29454
475.469,44.38167,      -8.29674
475.987,44.43333,      -8.29934
476.503,44.48500,      -8.30184
477.022,44.53667,      -8.30434
477.537,44.58833,      -8.30684
478.053,44.64000,      -8.30915
478.568,44.69167,      -8.31155
479.084,44.74333,      -8.31375
479.603,44.79500,      -8.31615
480.119,44.84667,      -8.31825
480.636,44.89833,      -8.32045
481.148,44.95000,      -8.32266
481.661,45.00167,      -8.32536
482.173,45.05333,      -8.32797
482.689,45.10500,      -8.33017
483.202,45.15667,      -8.33247
483.72,45.20833,      -8.33436
484.235,45.26000,      -8.33606
484.757,45.31167,      -8.33746
485.275,45.36333,      -8.33986
485.793,45.41500,      -8.34216
486.309,45.46667,      -8.34406
486.828,45.51833,      -8.34626
487.343,45.57000,      -8.34836
487.857,45.62167,      -8.35056
488.378,45.67333,      -8.35226
488.891,45.72500,      -8.35416
489.405,45.77667,      -8.35596
489.922,45.82833,      -8.35796
490.438,45.88000,      -8.36016
490.955,45.93167,      -8.36206
491.473,45.98333,      -8.36395
491.989,46.03500,      -8.36555
492.505,46.08667,      -8.36815
493.021,46.13833,      -8.37005
493.54,46.19000,      -8.37195
494.054,46.24167,      -8.37385
494.572,46.29333,      -8.37594
495.089,46.34500,      -8.37774
495.606,46.39667,      -8.37924
496.122,46.44833,      -8.38114
496.636,46.50000,      -8.38334
497.151,46.55167,      -8.38544
497.668,46.60333,      -8.38673
498.181,46.65500,      -8.38833
498.699,46.70667,      -8.39013
499.215,46.75833,      -8.39232
499.731,46.81000,      -8.39442
500.25,46.86167,      -8.39641
500.763,46.91333,      -8.39851
501.283,46.96500,      -8.40001
501.797,47.01667,      -8.40181
502.314,47.06833,      -8.40330
502.831,47.12000,      -8.40530
503.346,47.17167,      -8.40659
503.864,47.22333,      -8.40809
504.377,47.27500,      -8.40949
504.894,47.32667,      -8.41139
505.41,47.37833,      -8.41338
505.923,47.43000,      -8.41528
506.443,47.48167,      -8.41717
506.959,47.53333,      -8.41877
507.477,47.58500,      -8.42016
507.993,47.63667,      -8.42136
508.51,47.68833,      -8.42315
509.024,47.74000,      -8.42485
509.54,47.79167,      -8.42624
510.056,47.84333,      -8.42774
510.572,47.89500,      -8.42934
511.088,47.94667,      -8.43103
511.604,47.99833,      -8.43283
512.124,48.05000,      -8.43432
512.641,48.10167,      -8.43561
513.159,48.15333,      -8.43751
513.675,48.20500,      -8.43890
514.189,48.25667,      -8.44040
514.707,48.30833,      -8.44189
515.222,48.36000,      -8.44329
515.739,48.41167,      -8.44468
516.257,48.46333,      -8.44618
516.77,48.51500,      -8.44807
517.29,48.56667,      -8.44946
517.804,48.61833,      -8.45116
518.323,48.67000,      -8.45245
518.837,48.72167,      -8.45395
519.353,48.77333,      -8.45524
519.87,48.82500,      -8.45663
520.384,48.87667,      -8.45783
520.903,48.92833,      -8.45902
521.419,48.98000,      -8.46041
521.938,49.03167,      -8.46150
522.453,49.08333,      -8.46270
522.968,49.13500,      -8.46379
523.482,49.18667,      -8.46509
524,49.23833,      -8.46678
524.515,49.29000,      -8.46827
525.032,49.34167,      -8.46986
525.548,49.39333,      -8.47146
526.065,49.44500,      -8.47295
526.583,49.49667,      -8.47394
527.097,49.54833,      -8.47523
527.614,49.60000,      -8.47632
528.13,49.65167,      -8.47752
528.648,49.70333,      -8.47881
529.163,49.75500,      -8.47990
529.679,49.80667,      -8.48119
530.195,49.85833,      -8.48228
530.712,49.91000,      -8.48437
531.228,49.96167,      -8.48637
531.743,50.01333,      -8.48846
532.258,50.06500,      -8.49005
532.776,50.11667,      -8.49124
533.292,50.16833,      -8.49233
533.809,50.22000,      -8.49322
534.327,50.27167,      -8.49391
534.844,50.32333,      -8.49500
535.361,50.37500,      -8.49609
535.877,50.42667,      -8.49738
536.394,50.47833,      -8.49837
536.91,50.53000,      -8.49976
537.427,50.58167,      -8.50105
537.943,50.63333,      -8.50234
538.459,50.68500,      -8.50373
538.975,50.73667,      -8.50493
539.49,50.78833,      -8.50581
540.005,50.84000,      -8.50701
540.523,50.89167,      -8.50829
541.039,50.94333,      -8.50938
541.557,50.99500,      -8.51057
542.074,51.04667,      -8.51156
542.594,51.09833,      -8.51294
543.109,51.15000,      -8.51394
543.625,51.20167,      -8.51532
544.14,51.25333,      -8.51662
544.657,51.30500,      -8.51790
545.173,51.35667,      -8.51899
545.688,51.40833,      -8.52018
546.205,51.46000,      -8.52117
546.718,51.51167,      -8.52226
547.235,51.56333,      -8.52334
547.749,51.61500,      -8.52423
548.264,51.66667,      -8.52532
548.779,51.71833,      -8.52651
549.299,51.77000,      -8.52759
549.817,51.82167,      -8.52858
550.337,51.87333,      -8.52976
550.854,51.92500,      -8.53115
551.37,51.97667,      -8.53214
551.886,52.02833,      -8.53333
552.402,52.08000,      -8.53441
552.919,52.13167,      -8.53570
553.437,52.18333,      -8.53698
553.952,52.23500,      -8.53807
554.471,52.28667,      -8.53896
554.984,52.33833,      -8.54014
555.505,52.39000,      -8.54123
556.023,52.44167,      -8.54261
556.541,52.49333,      -8.54380
557.056,52.54500,      -8.54468
557.574,52.59667,      -8.54587
558.09,52.64833,      -8.54705
558.607,52.70000,      -8.54794
559.123,52.75167,      -8.54882
559.642,52.80333,      -8.54981
560.157,52.85500,      -8.55059
560.673,52.90667,      -8.55138
561.189,52.95833,      -8.55236
561.71,53.01000,      -8.55314
562.228,53.06167,      -8.55402
562.745,53.11333,      -8.55491
563.262,53.16500,      -8.55579
563.777,53.21667,      -8.55698
564.29,53.26833,      -8.55806
564.806,53.32000,      -8.55905
565.321,53.37167,      -8.55993
565.84,53.42333,      -8.56091
566.354,53.47500,      -8.56189
566.869,53.52667,      -8.56318
567.386,53.57833,      -8.56416
567.905,53.63000,      -8.56534
568.419,53.68167,      -8.56642
568.936,53.73333,      -8.56760
569.454,53.78500,      -8.56859
569.968,53.83667,      -8.56947
570.487,53.88833,      -8.57045
571.006,53.94000,      -8.57153
571.518,53.99167,      -8.57261
572.038,54.04333,      -8.57349
572.552,54.09500,      -8.57467
573.068,54.14667,      -8.57565
573.587,54.19833,      -8.57663
574.102,54.25000,      -8.57781
574.619,54.30167,      -8.57880
575.134,54.35333,      -8.57978
575.649,54.40500,      -8.58106
576.164,54.45667,      -8.58214
576.683,54.50833,      -8.58331
577.2,54.56000,      -8.58439
577.719,54.61167,      -8.58557
578.238,54.66333,      -8.58665
578.751,54.71500,      -8.58773
579.266,54.76667,      -8.58871
579.779,54.81833,      -8.58979
580.297,54.87000,      -8.59087
580.815,54.92167,      -8.59154
581.33,54.97333,      -8.59242
581.85,55.02500,      -8.59330
582.367,55.07667,      -8.59437
582.884,55.12833,      -8.59535
583.4,55.18000,      -8.59633
583.918,55.23167,      -8.59721
584.436,55.28333,      -8.59798
584.951,55.33500,      -8.59886
585.465,55.38667,      -8.59984
585.98,55.43833,      -8.60082
586.496,55.49000,      -8.60199
587.011,55.54167,      -8.60277
587.527,55.59333,      -8.60375
588.045,55.64500,      -8.60472
588.564,55.69667,      -8.60589
589.082,55.74833,      -8.60657
589.599,55.80000,      -8.60744
590.118,55.85167,      -8.60832
590.636,55.90333,      -8.60959
591.15,55.95500,      -8.61077
591.666,56.00667,      -8.61135
592.182,56.05833,      -8.61222
592.699,56.11000,      -8.61320
593.215,56.16167,      -8.61407
593.732,56.21333,      -8.61484
594.249,56.26500,      -8.61561
594.766,56.31667,      -8.61649
595.282,56.36833,      -8.61756
595.798,56.42000,      -8.61864
596.314,56.47167,      -8.61961
596.83,56.52333,      -8.62068
597.35,56.57500,      -8.62175
597.866,56.62667,      -8.62272
598.383,56.67833,      -8.62369
598.901,56.73000,      -8.62467
599.417,56.78167,      -8.62574
599.935,56.83333,      -8.62661
600.451,56.88500,      -8.62748
600.966,56.93667,      -8.62806
601.482,56.98833,      -8.62893
601.998,57.04000,      -8.62990
602.517,57.09167,      -8.63067
603.035,57.14333,      -8.63143
603.552,57.19500,      -8.63221
604.066,57.24667,      -8.63308
604.584,57.29833,      -8.63395
605.1,57.35000,      -8.63462
605.617,57.40167,      -8.63539
606.134,57.45333,      -8.63626
606.65,57.50500,      -8.63743
607.168,57.55667,      -8.63839
607.68,57.60833,      -8.63947
608.2,57.66000,      -8.64033
608.714,57.71167,      -8.64120
609.231,57.76333,      -8.64187
609.749,57.81500,      -8.64264
610.266,57.86667,      -8.64330
610.781,57.91833,      -8.64407
611.297,57.97000,      -8.64504
611.81,58.02167,      -8.64591
612.328,58.07333,      -8.64708
612.846,58.12500,      -8.64794
613.36,58.17667,      -8.64881
613.878,58.22833,      -8.64968
614.394,58.28000,      -8.65055
614.91,58.33167,      -8.65111
615.427,58.38333,      -8.65178
615.943,58.43500,      -8.65254
616.454,58.48667,      -8.65311
616.974,58.53833,      -8.65408
617.491,58.59000,      -8.65494
618.008,58.64167,      -8.65561
618.523,58.69333,      -8.65637
619.038,58.74500,      -8.65734
619.553,58.79667,      -8.65831
620.068,58.84833,      -8.65917
620.585,58.90000,      -8.66004
621.102,58.95167,      -8.66080
621.621,59.00333,      -8.66176
622.139,59.05500,      -8.66252
622.658,59.10667,      -8.66339
623.176,59.15833,      -8.66415
623.695,59.21000,      -8.66481
624.208,59.26167,      -8.66588
624.722,59.31333,      -8.66655
625.239,59.36500,      -8.66731
625.754,59.41667,      -8.66807
626.271,59.46833,      -8.66864
626.789,59.52000,      -8.66930
627.306,59.57167,      -8.66976
627.826,59.62333,      -8.67052
628.345,59.67500,      -8.67108
628.86,59.72667,      -8.67185
629.375,59.77833,      -8.67261
629.888,59.83000,      -8.67338
630.403,59.88167,      -8.67404
630.921,59.93333,      -8.67490
631.437,59.98500,      -8.67576
631.956,60.03667,      -8.67662
632.478,60.08833,      -8.67737
632.996,60.14000,      -8.67814
633.512,60.19167,      -8.67890
634.027,60.24333,      -8.67956
634.542,60.29500,      -8.68032
635.058,60.34667,      -8.68128
635.575,60.39833,      -8.68195
636.09,60.45000,      -8.68241
636.604,60.50167,      -8.68327
637.118,60.55333,      -8.68403
637.635,60.60500,      -8.68489
638.152,60.65667,      -8.68575
638.667,60.70833,      -8.68631
639.185,60.76000,      -8.68737
639.703,60.81167,      -8.68822
640.219,60.86333,      -8.68908
640.732,60.91500,      -8.68995
641.247,60.96667,      -8.69091
641.763,61.01833,      -8.69166
642.277,61.07000,      -8.69233
642.792,61.12167,      -8.69308
643.31,61.17333,      -8.69374
643.827,61.22500,      -8.69430
644.344,61.27667,      -8.69475
644.86,61.32833,      -8.69561
645.377,61.38000,      -8.69647
645.895,61.43167,      -8.69723
646.411,61.48333,      -8.69789
646.925,61.53500,      -8.69835
647.444,61.58667,      -8.69910
647.958,61.63833,      -8.69966
648.474,61.69000,      -8.70042
648.989,61.74167,      -8.70127
649.509,61.79333,      -8.70213
650.026,61.84500,      -8.70289
650.545,61.89667,      -8.70344
651.06,61.94833,      -8.70390
651.578,62.00000,      -8.70465
652.095,62.05167,      -8.70531
652.611,62.10333,      -8.70597
653.129,62.15500,      -8.70672
653.644,62.20667,      -8.70748
654.159,62.25833,      -8.70844
654.675,62.31000,      -8.70929
655.195,62.36167,      -8.71004
655.71,62.41333,      -8.71060
656.224,62.46500,      -8.71136
656.741,62.51667,      -8.71212
657.255,62.56833,      -8.71257
657.772,62.62000,      -8.71333
658.286,62.67167,      -8.71408
658.807,62.72333,      -8.71473
659.324,62.77500,      -8.71559
659.84,62.82667,      -8.71664
660.356,62.87833,      -8.71760
660.876,62.93000,      -8.71835
661.391,62.98167,      -8.71891
661.907,63.03333,      -8.71966
662.423,63.08500,      -8.72051
662.943,63.13667,      -8.72127
663.456,63.18833,      -8.72182
663.973,63.24000,      -8.72218
664.486,63.29167,      -8.72283
665.004,63.34333,      -8.72368
665.526,63.39500,      -8.72433
666.047,63.44667,      -8.72488
666.565,63.49833,      -8.72554
667.079,63.55000,      -8.72629
667.593,63.60167,      -8.72705
668.109,63.65333,      -8.72790
668.627,63.70500,      -8.72846
669.142,63.75667,      -8.72911
669.655,63.80833,      -8.72966
670.168,63.86000,      -8.73042
670.689,63.91167,      -8.73127
671.208,63.96333,      -8.73201
671.723,64.01500,      -8.73257
672.243,64.06667,      -8.73332
672.76,64.11833,      -8.73417
673.276,64.17000,      -8.73492
673.793,64.22167,      -8.73588
674.303,64.27333,      -8.73663
674.819,64.32500,      -8.73718
675.334,64.37667,      -8.73784
675.853,64.42833,      -8.73839
676.369,64.48000,      -8.73904
676.886,64.53167,      -8.73959
677.404,64.58333,      -8.74044
677.92,64.63500,      -8.74129
678.434,64.68667,      -8.74234
678.95,64.73833,      -8.74299
679.466,64.79000,      -8.74374
679.983,64.84167,      -8.74439
680.501,64.89333,      -8.74494
681.017,64.94500,      -8.74569
681.532,64.99667,      -8.74654
682.052,65.04833,      -8.74699
682.567,65.10000,      -8.74775
683.084,65.15167,      -8.74819
683.601,65.20333,      -8.74864
684.117,65.25500,      -8.74920
684.635,65.30667,      -8.74974
685.147,65.35833,      -8.75050
685.662,65.41000,      -8.75125
686.177,65.46167,      -8.75180
686.694,65.51333,      -8.75275
687.21,65.56500,      -8.75380
687.727,65.61667,      -8.75434
688.243,65.66833,      -8.75499
688.761,65.72000,      -8.75564
689.279,65.77167,      -8.75619
689.794,65.82333,      -8.75654
690.312,65.87500,      -8.75749
690.829,65.92667,      -8.75824
691.346,65.97833,      -8.75889
691.866,66.03000,      -8.75953
692.38,66.08167,      -8.76009
692.896,66.13333,      -8.76073
693.412,66.18500,      -8.76158
693.929,66.23667,      -8.76213
694.446,66.28833,      -8.76248
694.966,66.34000,      -8.76303
695.483,66.39167,      -8.76367
696.001,66.44333,      -8.76452
696.519,66.49500,      -8.76527
697.033,66.54667,      -8.76622
697.551,66.59833,      -8.76707
698.065,66.65000,      -8.76782
698.581,66.70167,      -8.76827
699.097,66.75333,      -8.76891
699.616,66.80500,      -8.76946
700.13,66.85667,      -8.77011
700.65,66.90833,      -8.77065
701.166,66.96000,      -8.77120
701.684,67.01167,      -8.77165
702.2,67.06333,      -8.77250
702.717,67.11500,      -8.77305
703.236,67.16667,      -8.77389
703.751,67.21833,      -8.77464
704.268,67.27000,      -8.77529
704.787,67.32167,      -8.77583
705.306,67.37333,      -8.77648
705.819,67.42500,      -8.77693
706.334,67.47667,      -8.77738
706.85,67.52833,      -8.77813
707.365,67.58000,      -8.77868
707.881,67.63167,      -8.77942
708.397,67.68333,      -8.78007
708.914,67.73500,      -8.78072
709.428,67.78667,      -8.78137
709.948,67.83833,      -8.78191
710.463,67.89000,      -8.78256
710.979,67.94167,      -8.78311
711.495,67.99333,      -8.78386
712.011,68.04500,      -8.78470
712.526,68.09667,      -8.78535
713.043,68.14833,      -8.78590
713.559,68.20000,      -8.78665
714.075,68.25167,      -8.78719
714.593,68.30333,      -8.78804
715.112,68.35500,      -8.78908
715.631,68.40667,      -8.78993
716.147,68.45833,      -8.79078
716.665,68.51000,      -8.79143
717.181,68.56167,      -8.79197
717.697,68.61333,      -8.79242
718.209,68.66500,      -8.79287
718.726,68.71667,      -8.79372
719.244,68.76833,      -8.79456
719.762,68.82000,      -8.79531
720.281,68.87167,      -8.79615
720.801,68.92333,      -8.79700
721.318,68.97500,      -8.79754
721.836,69.02667,      -8.79859
722.351,69.07833,      -8.79914
722.861,69.13000,      -8.79959
723.379,69.18167,      -8.80034
723.892,69.23333,      -8.80108
724.411,69.28500,      -8.80163
724.925,69.33667,      -8.80248
725.441,69.38833,      -8.80352
725.957,69.44000,      -8.80417
726.474,69.49167,      -8.80491
726.993,69.54333,      -8.80556
727.509,69.59500,      -8.80600
728.026,69.64667,      -8.80655
728.54,69.69833,      -8.80740
729.055,69.75000,      -8.80854
729.571,69.80167,      -8.80939
730.086,69.85333,      -8.81024
730.606,69.90500,      -8.81108
731.123,69.95667,      -8.81192
731.638,70.00833,      -8.81277
732.158,70.06000,      -8.81331
732.673,70.11167,      -8.81386
733.19,70.16333,      -8.81470
733.707,70.21500,      -8.81535
734.226,70.26667,      -8.81619
734.74,70.31833,      -8.81684
735.258,70.37000,      -8.81758
735.775,70.42167,      -8.81802
736.293,70.47333,      -8.81847
736.812,70.52500,      -8.81891
737.332,70.57667,      -8.81955
737.848,70.62833,      -8.82010
738.363,70.68000,      -8.82074
738.874,70.73167,      -8.82119
739.392,70.78333,      -8.82194
739.904,70.83500,      -8.82278
740.423,70.88667,      -8.82362
740.939,70.93833,      -8.82416
741.455,70.99000,      -8.82521
741.973,71.04167,      -8.82615
742.489,71.09333,      -8.82709
743.006,71.14500,      -8.82793
743.522,71.19667,      -8.82878
744.041,71.24833,      -8.82952
744.557,71.30000,      -8.83006
745.07,71.35167,      -8.83061
745.587,71.40333,      -8.83145
746.101,71.45500,      -8.83249
746.616,71.50667,      -8.83333
747.136,71.55833,      -8.83427
747.652,71.61000,      -8.83511
748.171,71.66167,      -8.83595
748.689,71.71333,      -8.83669
749.204,71.76500,      -8.83764
749.724,71.81667,      -8.83848
750.239,71.86833,      -8.83912
750.755,71.92000,      -8.83956
751.269,71.97167,      -8.84000
751.783,72.02333,      -8.84074
752.301,72.07500,      -8.84148
752.819,72.12667,      -8.84232
753.34,72.17833,      -8.84316
753.859,72.23000,      -8.84410
754.378,72.28167,      -8.84483
754.891,72.33333,      -8.84558
755.407,72.38500,      -8.84652
755.921,72.43667,      -8.84736
756.434,72.48833,      -8.84830
756.948,72.54000,      -8.84904
757.463,72.59167,      -8.84958
757.98,72.64333,      -8.85032
758.502,72.69500,      -8.85095
759.02,72.74667,      -8.85179
759.538,72.79833,      -8.85262
760.054,72.85000,      -8.85326
760.573,72.90167,      -8.85390
761.088,72.95333,      -8.85474
761.605,73.00500,      -8.85548
762.118,73.05667,      -8.85612
762.638,73.10833,      -8.85675
763.158,73.16000,      -8.85748
763.675,73.21167,      -8.85832
764.191,73.26333,      -8.85896
764.708,73.31500,      -8.85969
765.224,73.36667,      -8.86033
765.74,73.41833,      -8.86127
766.253,73.47000,      -8.86220
766.767,73.52167,      -8.86334
767.286,73.57333,      -8.86437
767.801,73.62500,      -8.86521
768.319,73.67667,      -8.86604
768.838,73.72833,      -8.86688
769.352,73.78000,      -8.86781
769.869,73.83167,      -8.86884
770.383,73.88333,      -8.86978
770.898,73.93500,      -8.87061
771.42,73.98667,      -8.87154
771.938,74.03833,      -8.87238
772.456,74.09000,      -8.87301
772.971,74.14167,      -8.87384
773.487,74.19333,      -8.87448
774.001,74.24500,      -8.87551
774.516,74.29667,      -8.87615
775.028,74.34833,      -8.87698
775.545,74.40000,      -8.87781
776.06,74.45167,      -8.87864
776.578,74.50333,      -8.87967
777.093,74.55500,      -8.88070
777.609,74.60667,      -8.88143
778.127,74.65833,      -8.88226
778.645,74.71000,      -8.88309
779.161,74.76167,      -8.88382
779.682,74.81333,      -8.88475
780.192,74.86500,      -8.88568
780.71,74.91667,      -8.88661
781.23,74.96833,      -8.88764
781.744,75.02000,      -8.88827
782.264,75.07167,      -8.88910
782.782,75.12333,      -8.88982
783.3,75.17500,      -8.89065
783.817,75.22667,      -8.89148
784.332,75.27833,      -8.89261
784.854,75.33000,      -8.89353
785.368,75.38167,      -8.89426
785.887,75.43333,      -8.89489
786.402,75.48500,      -8.89602
786.916,75.53667,      -8.89684
787.433,75.58833,      -8.89757
787.95,75.64000,      -8.89870
788.463,75.69167,      -8.89982
788.981,75.74333,      -8.90075
789.497,75.79500,      -8.90157
790.012,75.84667,      -8.90230
790.533,75.89833,      -8.90332
791.047,75.95000,      -8.90415
791.56,76.00167,      -8.90527
792.079,76.05333,      -8.90610
792.594,76.10500,      -8.90712
793.115,76.15667,      -8.90814
793.633,76.20833,      -8.90926
794.152,76.26000,      -8.91078
794.67,76.31167,      -8.91230
795.186,76.36333,      -8.91373
795.706,76.41500,      -8.91455
796.223,76.46667,      -8.91537
796.743,76.51833,      -8.91599
797.262,76.57000,      -8.91651
797.781,76.62167,      -8.91713
798.304,76.67333,      -8.91804
798.822,76.72500,      -8.91866
799.341,76.77667,      -8.91958
799.391,76.78167,      -8.91956