File: data-raw/TGA/BB_TGA.csv
#EXPORTTYPE:                 ,DATA SINGLE
#FILE:                       ,BB.ngb-st9
#FORMAT:                     ,NETZSCH5
#FTYPE:                      ,ANSI
#IDENTITY:                   ,Saras
#DECIMAL:                    ,POINT
#SEPARATOR:                  ,COMMA
#MTYPE:                      ,TG
#INSTRUMENT:                 ,NETZSCH TG 209F1 Libra
#PROJECT:                    ,IL
#DATE/TIME:                  ,13/03/2017 9:42:59 AM (UTC+11)
#CORR. FILE:                 ,
#TEMPCAL:                    ,TCALZERO.TCX
#LABORATORY:                 ,Capture Lab
#OPERATOR:                   ,NJN
#REMARK:                     ,Training run
#SAMPLE:                     ,BB
#SAMPLE MASS /mg:            ,16.1549
#MATERIAL:                   ,KHCO3
#TYPE OF CRUCIBLE:           ,Al2O3
#SAMPLE CRUCIBLE MASS /mg:   ,311.0814
#REFERENCE CRUCIBLE MASS /mg:,
#M.RANGE /mg:                ,2000
#CORR. CODE:                 ,090
#RANGE:                      ,32°C/10.0(K/min)/800°C
#SEGMENT:                    ,S1/1
#SEG. 1:                     ,32°C/10.0(K/min)/800°C

##Temp./°C,Time/min,Mass loss/mg
 31.97300, 0.00000,-1.997354e-003
 31.97300, 0.05167,-2.588839e-003
 32.02700, 0.10333,-3.383146e-003
 32.32700, 0.15500,-3.098437e-003
 32.70600, 0.20667,-1.159271e-003
 33.05300, 0.25833,-5.953384e-004
 33.40100, 0.31000,-7.590797e-004
 33.79500, 0.36167,-8.869589e-004
 34.23000, 0.41333,-9.777353e-004
 34.69100, 0.46500,-1.143983e-003
 35.17900, 0.51667,-1.451023e-003
 35.69100, 0.56833,-1.807261e-003
 36.23500, 0.62000,-2.055668e-003
 36.79900, 0.67167,-2.356268e-003
 37.38400, 0.72333,-2.901376e-003
 37.98600, 0.77500,-3.259041e-003
 38.60000, 0.82667,-3.749712e-003
 39.22300, 0.87833,-4.373721e-003
 39.86000, 0.93000,-4.847029e-003
 40.49800, 0.98167,-5.429489e-003
 41.13600, 1.03333,-6.250941e-003
 41.78000, 1.08500,-7.214786e-003
 42.42000, 1.13667,-8.330571e-003
 43.04800, 1.18833,-9.353925e-003
 43.67600, 1.24000,-1.107085e-002
 44.29800, 1.29167,-1.284654e-002
 44.91400, 1.34333,-1.508535e-002
 45.51900, 1.39500,-1.751092e-002
 46.11200, 1.44667,-1.988980e-002
 46.70200, 1.49833,-2.208548e-002
 47.27800, 1.55000,-2.403484e-002
 47.84400, 1.60167,-2.600483e-002
 48.40100, 1.65333,-2.806037e-002
 48.95300, 1.70500,-3.042968e-002
 49.49100, 1.75667,-3.249665e-002
 50.02700, 1.80833,-3.478360e-002
 50.55300, 1.86000,-3.756735e-002
 51.07300, 1.91167,-4.007814e-002
 51.58900, 1.96333,-4.289769e-002
 52.09700, 2.01500,-4.541571e-002
 52.60200, 2.06667,-4.825240e-002
 53.10700, 2.11833,-5.122526e-002
 53.60300, 2.17000,-5.436085e-002
 54.10000, 2.22167,-5.776200e-002
 54.60300, 2.27333,-6.118561e-002
 55.09700, 2.32500,-6.476604e-002
 55.59500, 2.37667,-6.780350e-002
 56.09100, 2.42833,-7.142852e-002
 56.58800, 2.48000,-7.495694e-002
 57.08500, 2.53167,-7.899807e-002
 57.58200, 2.58333,-8.283050e-002
 58.08300, 2.63500,-8.709128e-002
 58.58300, 2.68667,-9.073315e-002
 59.08700, 2.73833,-9.509296e-002
 59.59200, 2.79000,-9.925685e-002
 60.10400, 2.84167,      -0.10374
 60.60900, 2.89333,      -0.10798
 61.11800, 2.94500,      -0.11235
 61.63500, 2.99667,      -0.11713
 62.15300, 3.04833,      -0.12169
 62.66500, 3.10000,      -0.12663
 63.18400, 3.15167,      -0.13128
 63.70200, 3.20333,      -0.13653
 64.22100, 3.25500,      -0.14136
 64.74000, 3.30667,      -0.14659
 65.26200, 3.35833,      -0.15174
 65.78300, 3.41000,      -0.15677
 66.30500, 3.46167,      -0.16291
 66.82500, 3.51333,      -0.16832
 67.34900, 3.56500,      -0.17425
 67.87100, 3.61667,      -0.17977
 68.39500, 3.66833,      -0.18538
 68.91600, 3.72000,      -0.19142
 69.44200, 3.77167,      -0.19695
 69.96100, 3.82333,      -0.20283
 70.48000, 3.87500,      -0.20851
 71.00100, 3.92667,      -0.21442
 71.51800, 3.97833,      -0.22012
 72.04100, 4.03000,      -0.22633
 72.55800, 4.08167,      -0.23202
 73.07700, 4.13333,      -0.23843
 73.59700, 4.18500,      -0.24464
 74.11400, 4.23667,      -0.25103
 74.63400, 4.28833,      -0.25744
 75.15200, 4.34000,      -0.26314
 75.66900, 4.39167,      -0.26954
 76.18700, 4.44333,      -0.27544
 76.70200, 4.49500,      -0.28183
 77.22000, 4.54667,      -0.28765
 77.73900, 4.59833,      -0.29415
 78.25700, 4.65000,      -0.30035
 78.77400, 4.70167,      -0.30684
 79.29200, 4.75333,      -0.31264
 79.80900, 4.80500,      -0.31814
 80.32600, 4.85667,      -0.32464
 80.84100, 4.90833,      -0.33054
 81.36000, 4.96000,      -0.33695
 81.87500, 5.01167,      -0.34253
 82.39400, 5.06333,      -0.34883
 82.91100, 5.11500,      -0.35443
 83.42800, 5.16667,      -0.36003
 83.94600, 5.21833,      -0.36593
 84.46300, 5.27000,      -0.37143
 84.98000, 5.32167,      -0.37713
 85.49700, 5.37333,      -0.38262
 86.01600, 5.42500,      -0.38852
 86.53500, 5.47667,      -0.39382
 87.05300, 5.52833,      -0.39932
 87.57400, 5.58000,      -0.40461
 88.09400, 5.63167,      -0.41012
 88.61300, 5.68333,      -0.41541
 89.12600, 5.73500,      -0.42028
 89.64200, 5.78667,      -0.42547
 90.16100, 5.83833,      -0.43057
 90.68100, 5.89000,      -0.43557
 91.20100, 5.94167,      -0.44006
 91.71800, 5.99333,      -0.44476
 92.23600, 6.04500,      -0.44925
 92.75500, 6.09667,      -0.45404
 93.27100, 6.14833,      -0.45882
 93.78700, 6.20000,      -0.46320
 94.30500, 6.25167,      -0.46780
 94.82400, 6.30333,      -0.47190
 95.33700, 6.35500,      -0.47618
 95.85800, 6.40667,      -0.48019
 96.37800, 6.45833,      -0.48438
 96.89600, 6.51000,      -0.48867
 97.41000, 6.56167,      -0.49275
 97.92700, 6.61333,      -0.49684
 98.44500, 6.66500,      -0.50044
 98.96300, 6.71667,      -0.50443
 99.48100, 6.76833,      -0.50811
 99.99700, 6.82000,      -0.51161
100.513, 6.87167,      -0.51513
101.032, 6.92333,      -0.51845
101.552, 6.97500,      -0.52187
102.064, 7.02667,      -0.52537
102.583, 7.07833,      -0.52868
103.102, 7.13000,      -0.53150
103.615, 7.18167,      -0.53488
104.133, 7.23333,      -0.53791
104.649, 7.28500,      -0.54100
105.164, 7.33667,      -0.54401
105.68, 7.38833,      -0.54701
106.199, 7.44000,      -0.54982
106.716, 7.49167,      -0.55252
107.23, 7.54333,      -0.55531
107.748, 7.59500,      -0.55801
108.262, 7.64667,      -0.56070
108.779, 7.69833,      -0.56340
109.29, 7.75000,      -0.56619
109.808, 7.80167,      -0.56838
110.327, 7.85333,      -0.57118
110.839, 7.90500,      -0.57336
111.354, 7.95667,      -0.57575
111.869, 8.00833,      -0.57814
112.384, 8.06000,      -0.58032
112.899, 8.11167,      -0.58241
113.418, 8.16333,      -0.58471
113.936, 8.21500,      -0.58690
114.454, 8.26667,      -0.58889
114.967, 8.31833,      -0.59115
115.486, 8.37000,      -0.59304
116, 8.42167,      -0.59511
116.516, 8.47333,      -0.59750
117.034, 8.52500,      -0.59958
117.549, 8.57667,      -0.60115
118.069, 8.62833,      -0.60313
118.585, 8.68000,      -0.60551
119.1, 8.73167,      -0.60768
119.613, 8.78333,      -0.60984
120.129, 8.83500,      -0.61182
120.65, 8.88667,      -0.61380
121.162, 8.93833,      -0.61576
121.678, 8.99000,      -0.61783
122.198, 9.04167,      -0.62040
122.712, 9.09333,      -0.62266
123.228, 9.14500,      -0.62483
123.74, 9.19667,      -0.62689
124.258, 9.24833,      -0.62925
124.775, 9.30000,      -0.63123
125.288, 9.35167,      -0.63348
125.804, 9.40333,      -0.63524
126.323, 9.45500,      -0.63711
126.839, 9.50667,      -0.63947
127.356, 9.55833,      -0.64143
127.873, 9.61000,      -0.64379
128.388, 9.66167,      -0.64605
128.907, 9.71333,      -0.64851
129.421, 9.76500,      -0.65076
129.938, 9.81667,      -0.65292
130.454, 9.86833,      -0.65517
130.971, 9.92000,      -0.65772
131.488, 9.97167,      -0.65978
132.006,10.02333,      -0.66223
132.526,10.07500,      -0.66489
133.043,10.12667,      -0.66734
133.557,10.17833,      -0.66988
134.077,10.23000,      -0.67204
134.596,10.28167,      -0.67438
135.114,10.33333,      -0.67643
135.63,10.38500,      -0.67868
136.148,10.43667,      -0.68133
136.663,10.48833,      -0.68407
137.183,10.54000,      -0.68671
137.701,10.59167,      -0.68916
138.217,10.64333,      -0.69200
138.734,10.69500,      -0.69454
139.251,10.74667,      -0.69739
139.767,10.79833,      -0.70013
140.282,10.85000,      -0.70307
140.801,10.90167,      -0.70561
141.32,10.95333,      -0.70826
141.837,11.00500,      -0.71109
142.353,11.05667,      -0.71433
142.872,11.10833,      -0.71738
143.39,11.16000,      -0.72002
143.908,11.21167,      -0.72275
144.426,11.26333,      -0.72558
144.944,11.31500,      -0.72852
145.459,11.36667,      -0.73115
145.975,11.41833,      -0.73419
146.49,11.47000,      -0.73702
147.008,11.52167,      -0.73975
147.525,11.57333,      -0.74269
148.042,11.62500,      -0.74513
148.564,11.67667,      -0.74787
149.081,11.72833,      -0.75100
149.598,11.78000,      -0.75403
150.113,11.83167,      -0.75696
150.632,11.88333,      -0.75980
151.148,11.93500,      -0.76293
151.661,11.98667,      -0.76545
152.184,12.03833,      -0.76819
152.699,12.09000,      -0.77082
153.216,12.14167,      -0.77395
153.734,12.19333,      -0.77668
154.252,12.24500,      -0.77991
154.767,12.29667,      -0.78274
155.286,12.34833,      -0.78547
155.799,12.40000,      -0.78839
156.314,12.45167,      -0.79122
156.83,12.50333,      -0.79414
157.344,12.55500,      -0.79708
157.862,12.60667,      -0.80050
158.377,12.65833,      -0.80353
158.893,12.71000,      -0.80666
159.408,12.76167,      -0.80968
159.926,12.81333,      -0.81312
160.442,12.86500,      -0.81655
160.958,12.91667,      -0.81967
161.472,12.96833,      -0.82310
161.99,13.02000,      -0.82623
162.504,13.07167,      -0.82965
163.023,13.12333,      -0.83278
163.542,13.17500,      -0.83651
164.058,13.22667,      -0.83994
164.571,13.27833,      -0.84346
165.088,13.33000,      -0.84728
165.606,13.38167,      -0.85091
166.12,13.43333,      -0.85474
166.636,13.48500,      -0.85817
167.153,13.53667,      -0.86199
167.672,13.58833,      -0.86572
168.188,13.64000,      -0.86965
168.703,13.69167,      -0.87337
169.219,13.74333,      -0.87680
169.736,13.79500,      -0.88043
170.251,13.84667,      -0.88465
170.77,13.89833,      -0.88878
171.284,13.95000,      -0.89290
171.799,14.00167,      -0.89702
172.317,14.05333,      -0.90075
172.837,14.10500,      -0.90519
173.351,14.15667,      -0.90881
173.868,14.20833,      -0.91303
174.386,14.26000,      -0.91716
174.902,14.31167,      -0.92119
175.419,14.36333,      -0.92562
175.939,14.41500,      -0.92975
176.453,14.46667,      -0.93437
176.974,14.51833,      -0.93830
177.489,14.57000,      -0.94263
178.006,14.62167,      -0.94675
178.522,14.67333,      -0.95098
179.039,14.72500,      -0.95531
179.557,14.77667,      -0.95994
180.074,14.82833,      -0.96417
180.589,14.88000,      -0.96860
181.106,14.93167,      -0.97333
181.621,14.98333,      -0.97775
182.139,15.03500,      -0.98268
182.659,15.08667,      -0.98732
183.171,15.13833,      -0.99224
183.69,15.19000,      -0.99647
184.206,15.24167,      -1.00141
184.724,15.29333,      -1.00624
185.241,15.34500,      -1.01077
185.757,15.39667,      -1.01590
186.275,15.44833,      -1.02083
186.79,15.50000,      -1.02597
187.304,15.55167,      -1.03070
187.822,15.60333,      -1.03573
188.338,15.65500,      -1.04066
188.855,15.70667,      -1.04580
189.374,15.75833,      -1.05104
189.891,15.81000,      -1.05607
190.408,15.86167,      -1.06151
190.929,15.91333,      -1.06635
191.445,15.96500,      -1.07168
191.962,16.01667,      -1.07682
192.478,16.06833,      -1.08235
192.996,16.12000,      -1.08759
193.514,16.17167,      -1.09303
194.033,16.22333,      -1.09857
194.549,16.27500,      -1.10411
195.066,16.32667,      -1.10955
195.583,16.37833,      -1.11499
196.1,16.43000,      -1.12083
196.616,16.48167,      -1.12637
197.131,16.53333,      -1.13231
197.648,16.58500,      -1.13765
198.162,16.63667,      -1.14369
198.677,16.68833,      -1.14933
199.193,16.74000,      -1.15548
199.709,16.79167,      -1.16173
200.227,16.84333,      -1.16767
200.744,16.89500,      -1.17422
201.26,16.94667,      -1.18026
201.776,16.99833,      -1.18671
202.293,17.05000,      -1.19266
202.809,17.10167,      -1.19940
203.324,17.15333,      -1.20605
203.84,17.20500,      -1.21210
204.359,17.25667,      -1.21895
204.875,17.30833,      -1.22579
205.39,17.36000,      -1.23284
205.91,17.41167,      -1.23969
206.425,17.46333,      -1.24674
206.944,17.51500,      -1.25368
207.463,17.56667,      -1.26093
207.979,17.61833,      -1.26838
208.495,17.67000,      -1.27533
209.009,17.72167,      -1.28257
209.529,17.77333,      -1.28992
210.045,17.82500,      -1.29777
210.563,17.87667,      -1.30532
211.079,17.92833,      -1.31357
211.595,17.98000,      -1.32151
212.107,18.03167,      -1.33006
212.625,18.08333,      -1.33861
213.142,18.13500,      -1.34686
213.657,18.18667,      -1.35561
214.175,18.23833,      -1.36406
214.693,18.29000,      -1.37331
215.21,18.34167,      -1.38196
215.725,18.39333,      -1.39161
216.246,18.44500,      -1.40076
216.759,18.49667,      -1.41071
217.273,18.54833,      -1.42005
217.793,18.60000,      -1.42961
218.309,18.65167,      -1.43996
218.827,18.70333,      -1.44951
219.342,18.75500,      -1.46036
219.86,18.80667,      -1.47041
220.378,18.85833,      -1.48116
220.894,18.91000,      -1.49191
221.411,18.96167,      -1.50316
221.925,19.01333,      -1.51411
222.443,19.06500,      -1.52576
222.957,19.11667,      -1.53751
223.474,19.16833,      -1.54896
223.992,19.22000,      -1.56111
224.506,19.27167,      -1.57306
225.025,19.32333,      -1.58602
225.541,19.37500,      -1.59786
226.058,19.42667,      -1.61091
226.572,19.47833,      -1.62317
227.09,19.53000,      -1.63672
227.607,19.58167,      -1.65017
228.124,19.63333,      -1.66302
228.64,19.68500,      -1.68947
229.16,19.73667,      -1.69883
229.674,19.78833,      -1.71038
230.193,19.84000,      -1.72253
230.713,19.89167,      -1.74638
231.228,19.94333,      -1.75683
231.747,19.99500,      -1.76958
232.263,20.04667,      -1.78274
232.777,20.09833,      -1.80609
233.293,20.15000,      -1.81704
233.81,20.20167,      -1.82919
234.325,20.25333,      -1.85604
234.844,20.30500,      -1.87180
235.357,20.35667,      -1.88855
235.874,20.40833,      -1.90020
236.392,20.46000,      -1.91175
236.904,20.51167,      -1.93830
237.418,20.56333,      -1.95425
237.938,20.61500,      -1.97231
238.457,20.66667,      -1.98876
238.971,20.71833,      -2.00701
239.489,20.77000,      -2.02416
240.003,20.82167,      -2.04242
240.523,20.87333,      -2.05977
241.041,20.92500,      -2.07892
241.558,20.97667,      -2.09777
242.073,21.02833,      -2.11583
242.594,21.08000,      -2.13538
243.11,21.13167,      -2.15403
243.626,21.18333,      -2.17358
244.142,21.23500,      -2.19213
244.655,21.28667,      -2.21208
245.174,21.33833,      -2.23184
245.69,21.39000,      -2.25179
246.206,21.44167,      -2.27244
246.723,21.49333,      -2.29199
247.241,21.54500,      -2.31315
247.756,21.59667,      -2.33310
248.272,21.64833,      -2.35465
248.789,21.70000,      -2.37520
249.306,21.75167,      -2.39665
249.821,21.80333,      -2.41811
250.336,21.85500,      -2.44056
250.852,21.90667,      -2.46361
251.369,21.95833,      -2.48456
251.885,22.01000,      -2.50831
252.404,22.06167,      -2.52947
252.917,22.11333,      -2.55322
253.437,22.16500,      -2.57507
253.952,22.21667,      -2.59882
254.466,22.26833,      -2.62177
254.981,22.32000,      -2.64653
255.499,22.37167,      -2.67068
256.019,22.42333,      -2.69353
256.533,22.47500,      -2.71858
257.05,22.52667,      -2.74123
257.567,22.57833,      -2.76768
258.084,22.63000,      -2.79224
258.6,22.68167,      -2.81789
259.116,22.73333,      -2.84204
259.634,22.78500,      -2.86759
260.153,22.83667,      -2.89374
260.669,22.88833,      -2.91819
261.185,22.94000,      -2.94454
261.703,22.99167,      -2.96939
262.222,23.04333,      -2.99604
262.736,23.09500,      -3.02189
263.254,23.14667,      -3.04825
263.772,23.19833,      -3.07380
264.287,23.25000,      -3.10085
264.803,23.30167,      -3.12820
265.319,23.35333,      -3.15425
265.836,23.40500,      -3.18190
266.352,23.45667,      -3.20715
266.869,23.50833,      -3.23480
267.386,23.56000,      -3.25985
267.905,23.61167,      -3.28820
268.418,23.66333,      -3.31585
268.934,23.71500,      -3.34160
269.453,23.76667,      -3.36735
269.965,23.81833,      -3.39550
270.48,23.87000,      -3.42295
270.997,23.92167,      -3.44889
271.512,23.97333,      -3.47694
272.028,24.02500,      -3.50329
272.544,24.07667,      -3.53044
273.059,24.12833,      -3.55579
273.578,24.18000,      -3.58314
274.094,24.23167,      -3.60909
274.613,24.28333,      -3.63664
275.128,24.33500,      -3.66369
275.645,24.38667,      -3.68943
276.161,24.43833,      -3.71658
276.676,24.49000,      -3.74243
277.192,24.54167,      -3.76928
277.712,24.59333,      -3.79503
278.228,24.64500,      -3.82227
278.743,24.69667,      -3.84772
279.261,24.74833,      -3.87507
279.779,24.80000,      -3.90232
280.292,24.85167,      -3.92766
280.811,24.90333,      -3.95471
281.327,24.95500,      -3.97966
281.841,25.00667,      -4.00660
282.36,25.05833,      -4.03175
282.876,25.11000,      -4.05820
283.393,25.16167,      -4.08284
283.906,25.21333,      -4.10979
284.422,25.26500,      -4.13583
284.94,25.31667,      -4.16118
285.458,25.36833,      -4.18703
285.972,25.42000,      -4.21157
286.489,25.47167,      -4.23802
287.005,25.52333,      -4.26246
287.52,25.57500,      -4.28881
288.035,25.62667,      -4.31325
288.554,25.67833,      -4.33890
289.069,25.73000,      -4.36464
289.586,25.78167,      -4.38958
290.1,25.83333,      -4.41603
290.625,25.88500,      -4.43817
291.142,25.93667,      -4.46531
291.658,25.98833,      -4.48996
292.176,26.04000,      -4.51540
292.692,26.09167,      -4.53984
293.207,26.14333,      -4.56479
293.726,26.19500,      -4.59013
294.238,26.24667,      -4.61397
294.767,26.29833,      -4.63921
295.284,26.35000,      -4.66365
295.798,26.40167,      -4.68910
296.309,26.45333,      -4.71324
296.824,26.50500,      -4.73868
297.336,26.55667,      -4.76232
297.852,26.60833,      -4.78776
298.368,26.66000,      -4.81351
298.885,26.71167,      -4.83725
299.401,26.76333,      -4.86209
299.915,26.81500,      -4.88613
300.431,26.86667,      -4.91137
300.946,26.91833,      -4.93591
301.464,26.97000,      -4.96185
301.98,27.02167,      -4.98509
302.497,27.07333,      -5.01073
303.013,27.12500,      -5.03657
303.527,27.17667,      -5.06101
304.045,27.22833,      -5.08665
304.562,27.28000,      -5.11109
305.079,27.33167,      -5.13723
305.594,27.38333,      -5.16177
306.114,27.43500,      -5.18761
306.628,27.48667,      -5.21255
307.146,27.53833,      -5.23879
307.661,27.59000,      -5.26523
308.18,27.64167,      -5.29057
308.698,27.69333,      -5.31691
309.213,27.74500,      -5.34245
309.731,27.79667,      -5.36929
310.248,27.84833,      -5.39393
310.766,27.90000,      -5.42217
311.278,27.95167,      -5.44621
311.796,28.00333,      -5.47475
312.313,28.05500,      -5.50049
312.829,28.10667,      -5.53033
313.342,28.15833,      -5.55937
313.859,28.21000,      -5.58631
314.379,28.26167,      -5.61485
314.892,28.31333,      -5.64159
315.408,28.36500,      -5.67023
315.929,28.41667,      -5.69777
316.445,28.46833,      -5.72791
316.963,28.52000,      -5.75805
317.48,28.57167,      -5.78689
317.996,28.62333,      -5.81733
318.513,28.67500,      -5.84637
319.027,28.72667,      -5.87771
319.541,28.77833,      -5.90755
320.064,28.83000,      -5.93909
320.58,28.88167,      -5.96953
321.097,28.93333,      -6.00217
321.612,28.98500,      -6.03291
322.129,29.03667,      -6.06555
322.642,29.08833,      -6.09929
323.156,29.14000,      -6.13033
323.673,29.19167,      -6.16487
324.193,29.24333,      -6.19681
324.707,29.29500,      -6.23215
325.222,29.34667,      -6.26499
325.738,29.39833,      -6.29983
326.252,29.45000,      -6.33307
326.77,29.50167,      -6.36881
327.288,29.55333,      -6.40514
327.805,29.60500,      -6.43878
328.32,29.65667,      -6.47532
328.84,29.70833,      -6.50946
329.356,29.76000,      -6.54640
329.873,29.81167,      -6.58104
330.392,29.86333,      -6.61758
330.908,29.91500,      -6.65252
331.424,29.96667,      -6.69016
331.94,30.01833,      -6.72740
332.459,30.07000,      -6.76284
332.972,30.12167,      -6.79998
333.49,30.17333,      -6.83461
334.008,30.22500,      -6.87195
334.521,30.27667,      -6.90649
335.038,30.32833,      -6.94403
335.555,30.38000,      -6.97877
336.074,30.43167,      -7.01491
336.589,30.48333,      -7.05165
337.109,30.53500,      -7.08568
337.623,30.58667,      -7.12162
338.141,30.63833,      -7.15546
338.655,30.69000,      -7.19000
339.174,30.74167,      -7.22294
339.691,30.79333,      -7.25737
340.206,30.84500,      -7.28891
340.721,30.89667,      -7.32235
341.237,30.94833,      -7.35609
341.754,31.00000,      -7.38703
342.27,31.05167,      -7.41946
342.787,31.10333,      -7.44840
343.302,31.15500,      -7.47894
343.82,31.20667,      -7.50728
344.338,31.25833,      -7.53811
344.853,31.31000,      -7.56525
345.368,31.36167,      -7.59379
345.884,31.41333,      -7.62163
346.402,31.46500,      -7.64736
346.914,31.51667,      -7.67440
347.428,31.56833,      -7.69924
347.948,31.62000,      -7.72477
348.462,31.67167,      -7.74831
348.979,31.72333,      -7.77205
349.495,31.77500,      -7.79708
350.013,31.82667,      -7.81852
350.529,31.87833,      -7.84036
351.046,31.93000,      -7.86139
351.56,31.98167,      -7.88323
352.076,32.03333,      -7.90276
352.593,32.08500,      -7.92340
353.11,32.13667,      -7.94274
353.626,32.18833,      -7.96247
354.143,32.24000,      -7.98051
354.658,32.29167,      -7.99944
355.178,32.34333,      -8.01758
355.692,32.39500,      -8.03441
356.208,32.44667,      -8.05235
356.726,32.49833,      -8.06838
357.243,32.55000,      -8.08562
357.759,32.60167,      -8.10155
358.273,32.65333,      -8.11719
358.789,32.70500,      -8.12752
359.303,32.75667,      -8.15096
359.82,32.80833,      -8.16279
360.339,32.86000,      -8.17362
360.857,32.91167,      -8.18626
361.371,32.96333,      -8.21059
361.89,33.01500,      -8.22022
362.404,33.06667,      -8.23156
362.921,33.11833,      -8.24449
363.437,33.17000,      -8.26672
363.953,33.22167,      -8.27726
364.468,33.27333,      -8.28939
364.984,33.32500,      -8.30203
365.502,33.37667,      -8.32406
366.017,33.42833,      -8.33359
366.535,33.48000,      -8.34562
367.053,33.53167,      -8.35945
367.568,33.58333,      -8.37989
368.086,33.63500,      -8.38972
368.602,33.68667,      -8.40165
369.12,33.73833,      -8.41368
369.637,33.79000,      -8.43671
370.153,33.84167,      -8.44664
370.669,33.89333,      -8.45738
371.183,33.94500,      -8.46951
371.7,33.99667,      -8.49384
372.216,34.04833,      -8.50317
372.734,34.10000,      -8.51380
373.25,34.15167,      -8.52543
373.768,34.20333,      -8.53816
374.282,34.25500,      -8.56029
374.8,34.30667,      -8.57002
375.315,34.35833,      -8.58125
375.83,34.41000,      -8.59358
376.346,34.46167,      -8.61781
376.862,34.51333,      -8.62694
377.376,34.56500,      -8.63737
377.895,34.61667,      -8.64930
378.408,34.66833,      -8.66533
378.929,34.72000,      -8.68346
379.444,34.77167,      -8.69438
379.963,34.82333,      -8.70561
380.477,34.87500,      -8.71824
380.993,34.92667,      -8.74037
381.506,34.97833,      -8.75040
382.023,35.03000,      -8.76123
382.54,35.08167,      -8.77365
383.056,35.13333,      -8.79758
383.575,35.18500,      -8.80670
384.09,35.23667,      -8.81813
384.606,35.28833,      -8.82966
385.124,35.34000,      -8.85339
385.639,35.39167,      -8.86281
386.155,35.44333,      -8.87414
386.675,35.49500,      -8.88586
387.191,35.54667,      -8.90919
387.708,35.59833,      -8.91891
388.223,35.65000,      -8.93034
388.738,35.70167,      -8.94277
389.255,35.75333,      -8.96549
389.772,35.80500,      -8.97542
390.288,35.85667,      -8.98624
390.805,35.90833,      -8.99847
391.321,35.96000,      -9.02219
391.835,36.01167,      -9.03191
392.354,36.06333,      -9.04284
392.869,36.11500,      -9.05466
393.387,36.16667,      -9.07858
393.901,36.21833,      -9.08761
394.42,36.27000,      -9.09943
394.932,36.32167,      -9.11085
395.451,36.37333,      -9.13228
395.966,36.42500,      -9.14470
396.483,36.47667,      -9.15532
396.997,36.52833,      -9.16654
397.514,36.58000,      -9.17877
398.029,36.63167,      -9.20249
398.539,36.68333,      -9.21181
399.055,36.73500,      -9.22283
399.572,36.78667,      -9.23375
400.089,36.83833,      -9.25527
400.602,36.89000,      -9.26719
401.12,36.94167,      -9.27701
401.639,36.99333,      -9.28813
402.151,37.04500,      -9.30085
402.67,37.09667,      -9.32417
403.187,37.14833,      -9.33259
403.702,37.20000,      -9.34271
404.22,37.25167,      -9.35343
404.737,37.30333,      -9.36595
405.253,37.35500,      -9.37847
405.771,37.40667,      -9.39129
406.286,37.45833,      -9.40361
406.804,37.51000,      -9.41732
407.32,37.56167,      -9.43754
407.833,37.61333,      -9.44636
408.351,37.66500,      -9.45688
408.866,37.71667,      -9.46780
409.384,37.76833,      -9.47992
409.896,37.82000,      -9.49174
410.414,37.87167,      -9.50405
410.932,37.92333,      -9.51507
411.448,37.97500,      -9.52749
411.963,38.02667,      -9.53971
412.48,38.07833,      -9.55112
412.999,38.13000,      -9.56354
413.515,38.18167,      -9.57466
414.03,38.23333,      -9.58708
414.549,38.28500,      -9.59789
415.067,38.33667,      -9.60971
415.585,38.38833,      -9.62062
416.102,38.44000,      -9.63174
416.62,38.49167,      -9.64366
417.133,38.54333,      -9.65418
417.65,38.59500,      -9.66589
418.168,38.64667,      -9.67651
418.683,38.69833,      -9.68772
419.201,38.75000,      -9.69854
419.715,38.80167,      -9.70976
420.23,38.85333,      -9.72037
420.747,38.90500,      -9.73149
421.262,38.95667,      -9.74250
421.78,39.00833,      -9.75292
422.296,39.06000,      -9.76373
422.815,39.11167,      -9.77424
423.332,39.16333,      -9.78546
423.849,39.21500,      -9.79557
424.365,39.26667,      -9.80639
424.879,39.31833,      -9.81640
425.396,39.37000,      -9.82712
425.912,39.42167,      -9.83773
426.431,39.47333,      -9.84785
426.949,39.52500,      -9.85856
427.465,39.57667,      -9.86867
427.982,39.62833,      -9.87929
428.499,39.68000,      -9.88870
429.012,39.73167,      -9.89912
429.53,39.78333,      -9.90893
430.045,39.83500,      -9.91905
430.561,39.88667,      -9.92946
431.078,39.93833,      -9.93907
431.591,39.99000,      -9.94959
432.11,40.04167,      -9.95890
432.623,40.09333,      -9.96861
433.136,40.14500,      -9.97793
433.651,40.19667,      -9.98784
434.166,40.24833,      -9.99725
434.685,40.30000,     -10.00706
435.202,40.35167,     -10.01697
435.718,40.40333,     -10.02598
436.24,40.45500,     -10.03539
436.754,40.50667,     -10.04470
437.271,40.55833,     -10.05402
437.789,40.61000,     -10.06313
438.304,40.66167,     -10.07254
438.816,40.71333,     -10.08136
439.33,40.76500,     -10.09097
439.851,40.81667,     -10.09987
440.368,40.86833,     -10.10818
440.883,40.92000,     -10.11710
441.402,40.97167,     -10.12510
441.916,41.02333,     -10.13422
442.432,41.07500,     -10.14263
442.948,41.12667,     -10.15174
443.462,41.17833,     -10.15975
443.979,41.23000,     -10.16836
444.493,41.28167,     -10.17647
445.009,41.33333,     -10.18498
445.525,41.38500,     -10.19369
446.042,41.43667,     -10.20150
446.558,41.48833,     -10.20991
447.073,41.54000,     -10.21792
447.59,41.59167,     -10.22592
448.106,41.64333,     -10.23363
448.625,41.69500,     -10.24164
449.14,41.74667,     -10.24955
449.654,41.79833,     -10.25756
450.171,41.85000,     -10.26537
450.689,41.90167,     -10.27248
451.204,41.95333,     -10.28089
451.721,42.00500,     -10.28859
452.237,42.05667,     -10.29610
452.753,42.10833,     -10.30301
453.271,42.16000,     -10.31042
453.791,42.21167,     -10.31712
454.306,42.26333,     -10.32463
454.823,42.31500,     -10.33214
455.336,42.36667,     -10.33905
455.853,42.41833,     -10.34655
456.369,42.47000,     -10.35336
456.885,42.52167,     -10.36087
457.398,42.57333,     -10.36768
457.918,42.62500,     -10.37488
458.433,42.67667,     -10.38159
458.95,42.72833,     -10.38869
459.465,42.78000,     -10.39570
459.984,42.83167,     -10.40231
460.498,42.88333,     -10.40921
461.014,42.93500,     -10.41582
461.53,42.98667,     -10.42283
462.044,43.03833,     -10.42933
462.562,43.09000,     -10.43614
463.079,43.14167,     -10.44244
463.595,43.19333,     -10.44955
464.113,43.24500,     -10.45595
464.628,43.29667,     -10.46216
465.146,43.34833,     -10.46886
465.663,43.40000,     -10.47517
466.181,43.45167,     -10.48187
466.695,43.50333,     -10.48778
467.212,43.55500,     -10.49448
467.73,43.60667,     -10.50028
468.243,43.65833,     -10.50609
468.758,43.71000,     -10.51400
469.273,43.76167,     -10.51980
469.789,43.81333,     -10.52590
470.303,43.86500,     -10.53171
470.82,43.91667,     -10.53881
471.336,43.96833,     -10.54491
471.854,44.02000,     -10.55102
472.37,44.07167,     -10.55722
472.887,44.12333,     -10.56342
473.401,44.17500,     -10.56983
473.916,44.22667,     -10.57573
474.432,44.27833,     -10.58113
474.95,44.33000,     -10.58653
475.464,44.38167,     -10.59344
475.983,44.43333,     -10.59954
476.499,44.48500,     -10.60524
477.015,44.53667,     -10.61064
477.532,44.58833,     -10.61635
478.047,44.64000,     -10.62215
478.562,44.69167,     -10.62755
479.079,44.74333,     -10.63305
479.596,44.79500,     -10.63815
480.113,44.84667,     -10.64375
480.627,44.89833,     -10.64846
481.144,44.95000,     -10.65366
481.659,45.00167,     -10.65846
482.176,45.05333,     -10.66336
482.693,45.10500,     -10.66836
483.21,45.15667,     -10.67316
483.727,45.20833,     -10.67816
484.241,45.26000,     -10.68246
484.755,45.31167,     -10.68707
485.269,45.36333,     -10.69137
485.783,45.41500,     -10.69617
486.3,45.46667,     -10.70067
486.815,45.51833,     -10.70506
487.334,45.57000,     -10.70966
487.853,45.62167,     -10.71376
488.371,45.67333,     -10.71826
488.886,45.72500,     -10.72226
489.405,45.77667,     -10.72656
489.923,45.82833,     -10.73055
490.438,45.88000,     -10.73476
490.955,45.93167,     -10.73876
491.472,45.98333,     -10.74255
491.986,46.03500,     -10.74665
492.505,46.08667,     -10.75015
493.021,46.13833,     -10.75385
493.536,46.19000,     -10.75765
494.053,46.24167,     -10.76155
494.571,46.29333,     -10.76514
495.084,46.34500,     -10.76934
495.601,46.39667,     -10.77274
496.114,46.44833,     -10.77664
496.631,46.50000,     -10.78004
497.147,46.55167,     -10.78364
497.662,46.60333,     -10.78743
498.178,46.65500,     -10.79073
498.695,46.70667,     -10.79443
499.214,46.75833,     -10.79772
499.73,46.81000,     -10.80152
500.247,46.86167,     -10.80492
500.764,46.91333,     -10.80831
501.277,46.96500,     -10.81161
501.795,47.01667,     -10.81481
502.311,47.06833,     -10.81810
502.826,47.12000,     -10.82130
503.34,47.17167,     -10.82450
503.857,47.22333,     -10.82759
504.372,47.27500,     -10.83069
504.89,47.32667,     -10.83408
505.404,47.37833,     -10.83738
505.921,47.43000,     -10.84018
506.435,47.48167,     -10.84307
506.955,47.53333,     -10.84577
507.471,47.58500,     -10.84866
507.99,47.63667,     -10.85205
508.508,47.68833,     -10.85535
509.025,47.74000,     -10.85865
509.543,47.79167,     -10.86144
510.058,47.84333,     -10.86434
510.575,47.89500,     -10.86723
511.092,47.94667,     -10.86983
511.605,47.99833,     -10.87313
512.119,48.05000,     -10.87602
512.635,48.10167,     -10.87902
513.155,48.15333,     -10.88151
513.67,48.20500,     -10.88430
514.188,48.25667,     -10.88680
514.705,48.30833,     -10.88959
515.223,48.36000,     -10.89298
515.743,48.41167,     -10.89578
516.26,48.46333,     -10.89877
516.777,48.51500,     -10.90177
517.293,48.56667,     -10.90466
517.81,48.61833,     -10.90695
518.326,48.67000,     -10.90965
518.841,48.72167,     -10.91214
519.357,48.77333,     -10.91454
519.873,48.82500,     -10.91693
520.387,48.87667,     -10.91953
520.904,48.92833,     -10.92172
521.421,48.98000,     -10.92411
521.938,49.03167,     -10.92690
522.455,49.08333,     -10.92980
522.97,49.13500,     -10.93249
523.486,49.18667,     -10.93508
524.001,49.23833,     -10.93778
524.52,49.29000,     -10.94007
525.037,49.34167,     -10.94256
525.554,49.39333,     -10.94515
526.071,49.44500,     -10.94735
526.588,49.49667,     -10.95024
527.104,49.54833,     -10.95203
527.621,49.60000,     -10.95482
528.137,49.65167,     -10.95721
528.653,49.70333,     -10.95861
529.169,49.75500,     -10.96110
529.682,49.80667,     -10.96459
530.202,49.85833,     -10.96748
530.721,49.91000,     -10.96987
531.236,49.96167,     -10.97226
531.755,50.01333,     -10.97445
532.271,50.06500,     -10.97705
532.788,50.11667,     -10.97944
533.303,50.16833,     -10.98203
533.82,50.22000,     -10.98352
534.337,50.27167,     -10.98541
534.855,50.32333,     -10.98780
535.373,50.37500,     -10.99019
535.885,50.42667,     -10.99298
536.403,50.47833,     -10.99537
536.917,50.53000,     -10.99786
537.431,50.58167,     -10.99976
537.948,50.63333,     -11.00224
538.463,50.68500,     -11.00453
538.981,50.73667,     -11.00692
539.497,50.78833,     -11.00901
540.016,50.84000,     -11.01110
540.536,50.89167,     -11.01329
541.054,50.94333,     -11.01548
541.569,50.99500,     -11.01787
542.087,51.04667,     -11.01995
542.601,51.09833,     -11.02235
543.117,51.15000,     -11.02504
543.632,51.20167,     -11.02702
544.147,51.25333,     -11.02931
544.662,51.30500,     -11.03170
545.178,51.35667,     -11.03399
545.697,51.40833,     -11.03638
546.21,51.46000,     -11.03877
546.729,51.51167,     -11.04075
547.244,51.56333,     -11.04314
547.759,51.61500,     -11.04523
548.274,51.66667,     -11.04742
548.79,51.71833,     -11.04981
549.306,51.77000,     -11.05219
549.821,51.82167,     -11.05428
550.341,51.87333,     -11.05646
550.859,51.92500,     -11.05855
551.374,51.97667,     -11.06034
551.889,52.02833,     -11.06253
552.41,52.08000,     -11.06441
552.927,52.13167,     -11.06679
553.442,52.18333,     -11.06878
553.957,52.23500,     -11.07077
554.475,52.28667,     -11.07316
554.988,52.33833,     -11.07544
555.504,52.39000,     -11.07773
556.023,52.44167,     -11.07991
556.539,52.49333,     -11.08210
557.059,52.54500,     -11.08368
557.575,52.59667,     -11.08607
558.095,52.64833,     -11.08815
558.615,52.70000,     -11.08953
559.134,52.75167,     -11.09152
559.65,52.80333,     -11.09340
560.163,52.85500,     -11.09589
560.678,52.90667,     -11.09808
561.195,52.95833,     -11.09996
561.708,53.01000,     -11.10195
562.226,53.06167,     -11.10393
562.742,53.11333,     -11.10621
563.257,53.16500,     -11.10820
563.773,53.21667,     -11.11038
564.288,53.26833,     -11.11196
564.807,53.32000,     -11.11424
565.322,53.37167,     -11.11633
565.838,53.42333,     -11.11871
566.356,53.47500,     -11.12059
566.873,53.52667,     -11.12277
567.39,53.57833,     -11.12466
567.905,53.63000,     -11.12644
568.421,53.68167,     -11.12842
568.939,53.73333,     -11.13030
569.455,53.78500,     -11.13218
569.973,53.83667,     -11.13427
570.487,53.88833,     -11.13645
571.006,53.94000,     -11.13783
571.521,53.99167,     -11.13931
572.036,54.04333,     -11.14269
572.551,54.09500,     -11.14547
573.072,54.14667,     -11.14795
573.588,54.19833,     -11.14933
574.105,54.25000,     -11.15151
574.62,54.30167,     -11.15350
575.138,54.35333,     -11.15577
575.653,54.40500,     -11.15785
576.171,54.45667,     -11.16013
576.689,54.50833,     -11.16211
577.209,54.56000,     -11.16389
577.725,54.61167,     -11.16547
578.241,54.66333,     -11.16675
578.757,54.71500,     -11.16823
579.269,54.76667,     -11.17031
579.787,54.81833,     -11.17269
580.299,54.87000,     -11.17487
580.816,54.92167,     -11.17705
581.331,54.97333,     -11.17942
581.85,55.02500,     -11.18130
582.367,55.07667,     -11.18317
582.886,55.12833,     -11.18465
583.407,55.18000,     -11.18703
583.922,55.23167,     -11.18920
584.44,55.28333,     -11.19078
584.956,55.33500,     -11.19246
585.472,55.38667,     -11.19464
585.987,55.43833,     -11.19692
586.504,55.49000,     -11.19889
587.02,55.54167,     -11.20097
587.534,55.59333,     -11.20235
588.056,55.64500,     -11.20402
588.571,55.69667,     -11.20689
589.089,55.74833,     -11.20927
589.603,55.80000,     -11.21104
590.121,55.85167,     -11.21252
590.637,55.90333,     -11.21389
591.155,55.95500,     -11.21557
591.669,56.00667,     -11.21765
592.188,56.05833,     -11.21992
592.706,56.11000,     -11.22219
593.224,56.16167,     -11.22416
593.742,56.21333,     -11.22593
594.261,56.26500,     -11.22751
594.777,56.31667,     -11.22918
595.291,56.36833,     -11.23096
595.808,56.42000,     -11.23303
596.321,56.47167,     -11.23541
596.838,56.52333,     -11.23778
597.357,56.57500,     -11.23925
597.872,56.62667,     -11.24142
598.388,56.67833,     -11.24350
598.903,56.73000,     -11.24517
599.421,56.78167,     -11.24754
599.936,56.83333,     -11.24991
600.453,56.88500,     -11.25168
600.971,56.93667,     -11.25385
601.49,56.98833,     -11.25592
602.006,57.04000,     -11.25829
602.523,57.09167,     -11.26016
603.039,57.14333,     -11.26203
603.556,57.19500,     -11.26371
604.075,57.24667,     -11.26597
604.589,57.29833,     -11.26825
605.105,57.35000,     -11.27022
605.622,57.40167,     -11.27259
606.137,57.45333,     -11.27446
606.651,57.50500,     -11.27623
607.166,57.55667,     -11.27860
607.68,57.60833,     -11.28097
608.198,57.66000,     -11.28283
608.714,57.71167,     -11.28510
609.233,57.76333,     -11.28677
609.747,57.81500,     -11.28914
610.265,57.86667,     -11.29150
610.781,57.91833,     -11.29387
611.298,57.97000,     -11.29604
611.81,58.02167,     -11.29811
612.327,58.07333,     -11.30028
612.845,58.12500,     -11.30235
613.36,58.17667,     -11.30461
613.876,58.22833,     -11.30688
614.393,58.28000,     -11.30935
614.91,58.33167,     -11.31181
615.428,58.38333,     -11.31398
615.943,58.43500,     -11.31634
616.461,58.48667,     -11.31841
616.977,58.53833,     -11.32057
617.494,58.59000,     -11.32284
618.012,58.64167,     -11.32551
618.529,58.69333,     -11.32787
619.045,58.74500,     -11.33024
619.564,58.79667,     -11.33300
620.077,58.84833,     -11.33497
620.592,58.90000,     -11.33734
621.106,58.95167,     -11.34000
621.622,59.00333,     -11.34237
622.141,59.05500,     -11.34443
622.66,59.10667,     -11.34669
623.179,59.15833,     -11.34885
623.693,59.21000,     -11.35122
624.211,59.26167,     -11.35378
624.729,59.31333,     -11.35644
625.246,59.36500,     -11.35901
625.764,59.41667,     -11.36127
626.283,59.46833,     -11.36363
626.8,59.52000,     -11.36609
627.316,59.57167,     -11.36826
627.833,59.62333,     -11.37072
628.345,59.67500,     -11.37329
628.863,59.72667,     -11.37605
629.378,59.77833,     -11.37851
629.895,59.83000,     -11.38137
630.413,59.88167,     -11.38393
630.929,59.93333,     -11.38639
631.445,59.98500,     -11.38896
631.96,60.03667,     -11.39212
632.476,60.08833,     -11.39458
632.99,60.14000,     -11.39694
633.508,60.19167,     -11.39970
634.024,60.24333,     -11.40266
634.538,60.29500,     -11.40603
635.057,60.34667,     -11.40878
635.573,60.39833,     -11.41125
636.092,60.45000,     -11.41320
636.606,60.50167,     -11.41537
637.12,60.55333,     -11.41793
637.634,60.60500,     -11.42129
638.15,60.65667,     -11.42445
638.667,60.70833,     -11.42721
639.186,60.76000,     -11.42966
639.706,60.81167,     -11.43262
640.223,60.86333,     -11.43558
640.739,60.91500,     -11.43834
641.255,60.96667,     -11.44150
641.765,61.01833,     -11.44437
642.28,61.07000,     -11.44742
642.796,61.12167,     -11.45038
643.31,61.17333,     -11.45324
643.826,61.22500,     -11.45610
644.347,61.27667,     -11.45895
644.862,61.32833,     -11.46231
645.38,61.38000,     -11.46567
645.897,61.43167,     -11.46923
646.414,61.48333,     -11.47218
646.929,61.53500,     -11.47524
647.446,61.58667,     -11.47850
647.962,61.63833,     -11.48166
648.476,61.69000,     -11.48482
648.994,61.74167,     -11.48787
649.51,61.79333,     -11.49083
650.028,61.84500,     -11.49379
650.543,61.89667,     -11.49704
651.06,61.94833,     -11.50000
651.573,62.00000,     -11.50286
652.094,62.05167,     -11.50581
652.612,62.10333,     -11.50837
653.126,62.15500,     -11.51083
653.643,62.20667,     -11.51308
654.16,62.25833,     -11.51624
654.672,62.31000,     -11.51960
655.189,62.36167,     -11.52315
655.703,62.41333,     -11.52611
656.217,62.46500,     -11.52916
656.736,62.51667,     -11.53232
657.254,62.56833,     -11.53537
657.771,62.62000,     -11.53862
658.29,62.67167,     -11.54148
658.809,62.72333,     -11.54473
659.324,62.77500,     -11.54769
659.844,62.82667,     -11.55044
660.361,62.87833,     -11.55320
660.878,62.93000,     -11.55625
661.389,62.98167,     -11.55901
661.905,63.03333,     -11.56146
662.419,63.08500,     -11.56442
662.935,63.13667,     -11.56697
663.45,63.18833,     -11.57013
663.965,63.24000,     -11.57318
664.487,63.29167,     -11.57613
665.003,63.34333,     -11.57898
665.52,63.39500,     -11.58224
666.033,63.44667,     -11.58489
666.551,63.49833,     -11.58745
667.067,63.55000,     -11.59000
667.584,63.60167,     -11.59275
668.098,63.65333,     -11.59530
668.617,63.70500,     -11.59766
669.132,63.75667,     -11.60021
669.646,63.80833,     -11.60217
670.16,63.86000,     -11.60412
670.679,63.91167,     -11.60647
671.194,63.96333,     -11.60872
671.715,64.01500,     -11.61077
672.231,64.06667,     -11.61282
672.748,64.11833,     -11.61527
673.264,64.17000,     -11.61733
673.782,64.22167,     -11.61958
674.301,64.27333,     -11.62123
674.817,64.32500,     -11.62268
675.332,64.37667,     -11.62454
675.847,64.42833,     -11.62679
676.363,64.48000,     -11.62844
676.882,64.53167,     -11.63009
677.401,64.58333,     -11.63214
677.917,64.63500,     -11.63429
678.431,64.68667,     -11.63614
678.953,64.73833,     -11.63789
679.468,64.79000,     -11.63904
679.985,64.84167,     -11.64059
680.502,64.89333,     -11.64194
681.017,64.94500,     -11.64339
681.536,64.99667,     -11.64514
682.051,65.04833,     -11.64729
682.568,65.10000,     -11.64955
683.083,65.15167,     -11.65190
683.6,65.20333,     -11.65385
684.116,65.25500,     -11.65600
684.63,65.30667,     -11.65755
685.148,65.35833,     -11.65890
685.665,65.41000,     -11.66044
686.182,65.46167,     -11.66149
686.701,65.51333,     -11.66284
687.217,65.56500,     -11.66449
687.731,65.61667,     -11.66654
688.247,65.66833,     -11.66869
688.766,65.72000,     -11.67024
689.282,65.77167,     -11.67189
689.797,65.82333,     -11.67324
690.314,65.87500,     -11.67429
690.825,65.92667,     -11.67554
691.342,65.97833,     -11.67679
691.857,66.03000,     -11.67864
692.374,66.08167,     -11.68069
692.891,66.13333,     -11.68284
693.408,66.18500,     -11.68448
693.926,66.23667,     -11.68573
694.443,66.28833,     -11.68708
694.959,66.34000,     -11.68853
695.475,66.39167,     -11.69018
695.993,66.44333,     -11.69242
696.514,66.49500,     -11.69477
697.028,66.54667,     -11.69642
697.544,66.59833,     -11.69747
698.061,66.65000,     -11.69852
698.576,66.70167,     -11.69977
699.094,66.75333,     -11.70071
699.612,66.80500,     -11.70186
700.132,66.85667,     -11.70321
700.644,66.90833,     -11.70436
701.16,66.96000,     -11.70571
701.673,67.01167,     -11.70726
702.189,67.06333,     -11.70910
702.702,67.11500,     -11.71145
703.217,67.16667,     -11.71350
703.732,67.21833,     -11.71515
704.249,67.27000,     -11.71670
704.767,67.32167,     -11.71844
705.285,67.37333,     -11.72029
705.804,67.42500,     -11.72133
706.321,67.47667,     -11.72268
706.837,67.52833,     -11.72403
707.351,67.58000,     -11.72558
707.866,67.63167,     -11.72703
708.384,67.68333,     -11.72878
708.898,67.73500,     -11.73023
709.414,67.78667,     -11.73157
709.932,67.83833,     -11.73312
710.448,67.89000,     -11.73477
710.967,67.94167,     -11.73611
711.485,67.99333,     -11.73796
711.999,68.04500,     -11.73991
712.516,68.09667,     -11.74155
713.029,68.14833,     -11.74270
713.537,68.20000,     -11.74376
714.056,68.25167,     -11.74510
714.578,68.30333,     -11.74644
715.099,68.35500,     -11.74788
715.622,68.40667,     -11.74923
716.138,68.45833,     -11.75058
716.653,68.51000,     -11.75203
717.169,68.56167,     -11.75348
717.682,68.61333,     -11.75503
718.199,68.66500,     -11.75607
718.715,68.71667,     -11.75702
719.232,68.76833,     -11.75827
719.749,68.82000,     -11.75961
720.263,68.87167,     -11.76096
720.782,68.92333,     -11.76211
721.297,68.97500,     -11.76355
721.817,69.02667,     -11.76550
722.333,69.07833,     -11.76725
722.845,69.13000,     -11.76879
723.361,69.18167,     -11.77104
723.879,69.23333,     -11.77299
724.394,69.28500,     -11.77473
724.91,69.33667,     -11.77618
725.429,69.38833,     -11.77753
725.945,69.44000,     -11.77857
726.464,69.49167,     -11.77941
726.983,69.54333,     -11.78036
727.501,69.59500,     -11.78190
728.018,69.64667,     -11.78375
728.533,69.69833,     -11.78580
729.052,69.75000,     -11.78694
729.57,69.80167,     -11.78809
730.085,69.85333,     -11.78893
730.6,69.90500,     -11.79018
731.114,69.95667,     -11.79133
731.631,70.00833,     -11.79267
732.143,70.06000,     -11.79422
732.657,70.11167,     -11.79577
733.173,70.16333,     -11.79701
733.692,70.21500,     -11.79825
734.208,70.26667,     -11.79980
734.725,70.31833,     -11.80174
735.244,70.37000,     -11.80398
735.762,70.42167,     -11.80563
736.28,70.47333,     -11.80647
736.795,70.52500,     -11.80752
737.306,70.57667,     -11.80877
737.825,70.62833,     -11.80981
738.339,70.68000,     -11.81085
738.855,70.73167,     -11.81200
739.376,70.78333,     -11.81363
739.894,70.83500,     -11.81558
740.412,70.88667,     -11.81782
740.928,70.93833,     -11.81906
741.444,70.99000,     -11.82021
741.967,71.04167,     -11.82155
742.483,71.09333,     -11.82279
742.999,71.14500,     -11.82404
743.517,71.19667,     -11.82538
744.032,71.24833,     -11.82632
744.549,71.30000,     -11.82756
745.064,71.35167,     -11.82881
745.582,71.40333,     -11.82975
746.1,71.45500,     -11.83119
746.618,71.50667,     -11.83283
747.133,71.55833,     -11.83487
747.65,71.61000,     -11.83671
748.167,71.66167,     -11.83816
748.683,71.71333,     -11.83950
749.201,71.76500,     -11.84104
749.717,71.81667,     -11.84198
750.233,71.86833,     -11.84292
750.751,71.92000,     -11.84406
751.263,71.97167,     -11.84540
751.779,72.02333,     -11.84674
752.297,72.07500,     -11.84788
752.814,72.12667,     -11.84922
753.328,72.17833,     -11.85076
753.846,72.23000,     -11.85220
754.364,72.28167,     -11.85374
754.879,72.33333,     -11.85488
755.396,72.38500,     -11.85632
755.914,72.43667,     -11.85766
756.432,72.48833,     -11.85930
756.945,72.54000,     -11.86084
757.461,72.59167,     -11.86218
757.976,72.64333,     -11.86352
758.493,72.69500,     -11.86466
759.011,72.74667,     -11.86569
759.529,72.79833,     -11.86693
760.044,72.85000,     -11.86797
760.56,72.90167,     -11.86901
761.073,72.95333,     -11.86995
761.585,73.00500,     -11.87119
762.098,73.05667,     -11.87262
762.616,73.10833,     -11.87396
763.131,73.16000,     -11.87529
763.647,73.21167,     -11.87673
764.164,73.26333,     -11.87797
764.683,73.31500,     -11.87940
765.197,73.36667,     -11.88064
765.717,73.41833,     -11.88167
766.232,73.47000,     -11.88271
766.751,73.52167,     -11.88364
767.268,73.57333,     -11.88448
767.784,73.62500,     -11.88571
768.295,73.67667,     -11.88705
768.813,73.72833,     -11.88819
769.329,73.78000,     -11.88952
769.845,73.83167,     -11.89055
770.36,73.88333,     -11.89109
770.88,73.93500,     -11.89242
771.395,73.98667,     -11.89405
771.91,74.03833,     -11.89599
772.426,74.09000,     -11.89752
772.943,74.14167,     -11.89906
773.458,74.19333,     -11.90009
773.978,74.24500,     -11.90142
774.496,74.29667,     -11.90275
775.015,74.34833,     -11.90408
775.53,74.40000,     -11.90531
776.048,74.45167,     -11.90634
776.563,74.50333,     -11.90738
777.076,74.55500,     -11.90831
777.596,74.60667,     -11.90884
778.117,74.65833,     -11.90956
778.634,74.71000,     -11.91019
779.149,74.76167,     -11.91123
779.666,74.81333,     -11.91256
780.185,74.86500,     -11.91389
780.701,74.91667,     -11.91532
781.214,74.96833,     -11.91705
781.728,75.02000,     -11.91918
782.244,75.07167,     -11.92121
782.761,75.12333,     -11.92283
783.277,75.17500,     -11.92396
783.792,75.22667,     -11.92479
784.306,75.27833,     -11.92582
784.823,75.33000,     -11.92665
785.342,75.38167,     -11.92757
785.855,75.43333,     -11.92900
786.369,75.48500,     -11.93033
786.89,75.53667,     -11.93145
787.409,75.58833,     -11.93228
787.927,75.64000,     -11.93340
788.444,75.69167,     -11.93473
788.965,75.74333,     -11.93595
789.479,75.79500,     -11.93688
789.995,75.84667,     -11.93840
790.508,75.89833,     -11.93953
791.024,75.95000,     -11.94076
791.542,76.00167,     -11.94218
792.056,76.05333,     -11.94340
792.576,76.10500,     -11.94452
793.093,76.15667,     -11.94565
793.613,76.20833,     -11.94717
794.133,76.26000,     -11.94859
794.651,76.31167,     -11.94981
795.166,76.36333,     -11.95093
795.684,76.41500,     -11.95206
796.203,76.46667,     -11.95298
796.717,76.51833,     -11.95370
797.236,76.57000,     -11.95462
797.751,76.62167,     -11.95574
798.271,76.67333,     -11.95676
798.788,76.72500,     -11.95768
799.307,76.77667,     -11.95890
799.524,76.79833,     -11.95942