File: data-raw/TGA/C_TGA.csv
#EXPORTTYPE:                 ,DATA SINGLE
#FILE:                       ,C.ngb-st9
#FORMAT:                     ,NETZSCH5
#FTYPE:                      ,ANSI
#IDENTITY:                   ,Saras
#DECIMAL:                    ,POINT
#SEPARATOR:                  ,COMMA
#MTYPE:                      ,TG
#INSTRUMENT:                 ,NETZSCH TG 209F1 Libra
#PROJECT:                    ,IL
#DATE/TIME:                  ,10/03/2017 1:22:58 PM (UTC+11)
#CORR. FILE:                 ,
#TEMPCAL:                    ,TCALZERO.TCX
#LABORATORY:                 ,Capture Lab
#OPERATOR:                   ,NJN
#REMARK:                     ,Training run
#SAMPLE:                     ,C
#SAMPLE MASS /mg:            ,12.0878
#MATERIAL:                   ,KHCO3
#TYPE OF CRUCIBLE:           ,Al2O3
#SAMPLE CRUCIBLE MASS /mg:   ,310.9768
#REFERENCE CRUCIBLE MASS /mg:,
#M.RANGE /mg:                ,2000
#CORR. CODE:                 ,090
#RANGE:                      ,32°C/10.0(K/min)/800°C
#SEGMENT:                    ,S1/1
#SEG. 1:                     ,32°C/10.0(K/min)/800°C

##Temp./°C,Time/min,Mass loss/mg
 31.32300, 0.00000,-3.155927e-003
 31.32900, 0.05167,-5.557033e-003
 31.39400, 0.10333,-6.968058e-003
 31.72900, 0.15500,-5.433895e-003
 32.13300, 0.20667,-4.780938e-003
 32.51300, 0.25833,-6.269967e-003
 32.90200, 0.31000,-7.540972e-003
 33.34000, 0.36167,-9.191329e-003
 33.82800, 0.41333,-1.050114e-002
 34.33800, 0.46500,-1.214199e-002
 34.87600, 0.51667,-1.410244e-002
 35.44500, 0.56833,-1.594225e-002
 36.04100, 0.62000,-1.822033e-002
 36.65400, 0.67167,-2.078891e-002
 37.28900, 0.72333,-2.403144e-002
 37.93300, 0.77500,-2.752685e-002
 38.58900, 0.82667,-3.117360e-002
 39.25200, 0.87833,-3.492537e-002
 39.91500, 0.93000,-3.847078e-002
 40.57800, 0.98167,-4.215932e-002
 41.24000, 1.03333,-4.557789e-002
 41.89600, 1.08500,-4.954719e-002
 42.54900, 1.13667,-5.366660e-002
 43.19200, 1.18833,-5.792704e-002
 43.82200, 1.24000,-6.220969e-002
 44.44800, 1.29167,-6.681367e-002
 45.05900, 1.34333,-7.147981e-002
 45.65800, 1.39500,-7.641252e-002
 46.24800, 1.44667,-8.144799e-002
 46.82900, 1.49833,-8.699441e-002
 47.39100, 1.55000,-9.238408e-002
 47.94800, 1.60167,-9.783066e-002
 48.49600, 1.65333,      -0.10369
 49.03000, 1.70500,      -0.10942
 49.55800, 1.75667,      -0.11566
 50.08000, 1.80833,      -0.12155
 50.59600, 1.86000,      -0.12804
 51.10600, 1.91167,      -0.13435
 51.60900, 1.96333,      -0.14027
 52.11300, 2.01500,      -0.14651
 52.61100, 2.06667,      -0.15249
 53.10500, 2.11833,      -0.15916
 53.59800, 2.17000,      -0.16564
 54.09200, 2.22167,      -0.17265
 54.58500, 2.27333,      -0.17916
 55.08100, 2.32500,      -0.18569
 55.57300, 2.37667,      -0.19251
 56.06600, 2.42833,      -0.19895
 56.56300, 2.48000,      -0.20602
 57.06500, 2.53167,      -0.21350
 57.56700, 2.58333,      -0.22077
 58.06900, 2.63500,      -0.22762
 58.57400, 2.68667,      -0.23468
 59.08000, 2.73833,      -0.24146
 59.58700, 2.79000,      -0.24871
 60.09500, 2.84167,      -0.25556
 60.61000, 2.89333,      -0.26265
 61.12200, 2.94500,      -0.27020
 61.63700, 2.99667,      -0.27726
 62.15800, 3.04833,      -0.28513
 62.67600, 3.10000,      -0.29218
 63.19600, 3.15167,      -0.29973
 63.71700, 3.20333,      -0.30648
 64.23800, 3.25500,      -0.31391
 64.75900, 3.30667,      -0.32135
 65.28300, 3.35833,      -0.32809
 65.81000, 3.41000,      -0.33554
 66.33300, 3.46167,      -0.34204
 66.85600, 3.51333,      -0.34957
 67.37700, 3.56500,      -0.35646
 67.90100, 3.61667,      -0.36408
 68.42300, 3.66833,      -0.37140
 68.94600, 3.72000,      -0.37812
 69.46600, 3.77167,      -0.38551
 69.98800, 3.82333,      -0.39211
 70.51100, 3.87500,      -0.39923
 71.02900, 3.92667,      -0.40571
 71.54600, 3.97833,      -0.41241
 72.06800, 4.03000,      -0.41892
 72.58600, 4.08167,      -0.42573
 73.10800, 4.13333,      -0.43204
 73.62800, 4.18500,      -0.43844
 74.14600, 4.23667,      -0.44494
 74.66600, 4.28833,      -0.45095
 75.17900, 4.34000,      -0.45723
 75.70100, 4.39167,      -0.46304
 76.21700, 4.44333,      -0.46944
 76.73600, 4.49500,      -0.47514
 77.25200, 4.54667,      -0.48094
 77.76700, 4.59833,      -0.48592
 78.28400, 4.65000,      -0.49163
 78.79800, 4.70167,      -0.49741
 79.31700, 4.75333,      -0.50272
 79.83400, 4.80500,      -0.50822
 80.34600, 4.85667,      -0.51342
 80.86900, 4.90833,      -0.51855
 81.38500, 4.96000,      -0.52304
 81.89900, 5.01167,      -0.52773
 82.41700, 5.06333,      -0.53262
 82.93300, 5.11500,      -0.53712
 83.44900, 5.16667,      -0.54213
 83.96400, 5.21833,      -0.54661
 84.48100, 5.27000,      -0.55111
 85.00000, 5.32167,      -0.55553
 85.51200, 5.37333,      -0.55959
 86.03200, 5.42500,      -0.56361
 86.54300, 5.47667,      -0.56748
 87.06600, 5.52833,      -0.57160
 87.58100, 5.58000,      -0.57518
 88.09900, 5.63167,      -0.57868
 88.61700, 5.68333,      -0.58209
 89.13600, 5.73500,      -0.58589
 89.65100, 5.78667,      -0.58918
 90.17000, 5.83833,      -0.59247
 90.68800, 5.89000,      -0.59537
 91.21200, 5.94167,      -0.59859
 91.72900, 5.99333,      -0.60167
 92.24700, 6.04500,      -0.60445
 92.76200, 6.09667,      -0.60743
 93.28000, 6.14833,      -0.61003
 93.79900, 6.20000,      -0.61282
 94.31700, 6.25167,      -0.61531
 94.83500, 6.30333,      -0.61810
 95.34800, 6.35500,      -0.62058
 95.86800, 6.40667,      -0.62328
 96.38200, 6.45833,      -0.62596
 96.90000, 6.51000,      -0.62786
 97.41700, 6.56167,      -0.62935
 97.93500, 6.61333,      -0.63094
 98.45200, 6.66500,      -0.63254
 98.96700, 6.71667,      -0.63432
 99.48400, 6.76833,      -0.63641
 99.99900, 6.82000,      -0.63850
100.518, 6.87167,      -0.64052
101.034, 6.92333,      -0.64254
101.549, 6.97500,      -0.64424
102.07, 7.02667,      -0.64547
102.579, 7.07833,      -0.64676
103.1, 7.13000,      -0.64788
103.615, 7.18167,      -0.64899
104.128, 7.23333,      -0.65029
104.648, 7.28500,      -0.65160
105.168, 7.33667,      -0.65302
105.683, 7.38833,      -0.65441
106.198, 7.44000,      -0.65551
106.713, 7.49167,      -0.65681
107.229, 7.54333,      -0.65801
107.744, 7.59500,      -0.65901
108.261, 7.64667,      -0.65960
108.777, 7.69833,      -0.66049
109.293, 7.75000,      -0.66149
109.809, 7.80167,      -0.66248
110.323, 7.85333,      -0.66357
110.838, 7.90500,      -0.66446
111.353, 7.95667,      -0.66525
111.867, 8.00833,      -0.66603
112.382, 8.06000,      -0.66692
112.898, 8.11167,      -0.66752
113.415, 8.16333,      -0.66820
113.93, 8.21500,      -0.66879
114.444, 8.26667,      -0.66977
114.961, 8.31833,      -0.67045
115.479, 8.37000,      -0.67114
115.994, 8.42167,      -0.67182
116.51, 8.47333,      -0.67240
117.028, 8.52500,      -0.67308
117.547, 8.57667,      -0.67377
118.061, 8.62833,      -0.67433
118.582, 8.68000,      -0.67512
119.099, 8.73167,      -0.67570
119.615, 8.78333,      -0.67645
120.134, 8.83500,      -0.67694
120.649, 8.88667,      -0.67720
121.167, 8.93833,      -0.67787
121.682, 8.99000,      -0.67843
122.198, 9.04167,      -0.67890
122.714, 9.09333,      -0.67946
123.234, 9.14500,      -0.67994
123.752, 9.19667,      -0.68052
124.265, 9.24833,      -0.68097
124.787, 9.30000,      -0.68144
125.303, 9.35167,      -0.68190
125.819, 9.40333,      -0.68216
126.336, 9.45500,      -0.68262
126.85, 9.50667,      -0.68298
127.369, 9.55833,      -0.68323
127.883, 9.61000,      -0.68369
128.398, 9.66167,      -0.68414
128.916, 9.71333,      -0.68490
129.437, 9.76500,      -0.68537
129.95, 9.81667,      -0.68592
130.471, 9.86833,      -0.68638
130.986, 9.92000,      -0.68663
131.501, 9.97167,      -0.68708
132.019,10.02333,      -0.68763
132.536,10.07500,      -0.68818
133.053,10.12667,      -0.68864
133.571,10.17833,      -0.68889
134.086,10.23000,      -0.68933
134.603,10.28167,      -0.68978
135.12,10.33333,      -0.69022
135.637,10.38500,      -0.69038
136.153,10.43667,      -0.69072
136.672,10.48833,      -0.69117
137.185,10.54000,      -0.69170
137.702,10.59167,      -0.69225
138.219,10.64333,      -0.69300
138.734,10.69500,      -0.69353
139.252,10.74667,      -0.69398
139.767,10.79833,      -0.69442
140.283,10.85000,      -0.69496
140.799,10.90167,      -0.69570
141.319,10.95333,      -0.69635
141.833,11.00500,      -0.69709
142.35,11.05667,      -0.69763
142.868,11.10833,      -0.69847
143.387,11.16000,      -0.69901
143.905,11.21167,      -0.69955
144.42,11.26333,      -0.70039
144.939,11.31500,      -0.70112
145.459,11.36667,      -0.70176
145.974,11.41833,      -0.70259
146.493,11.47000,      -0.70343
147.008,11.52167,      -0.70387
147.526,11.57333,      -0.70449
148.042,11.62500,      -0.70552
148.554,11.67667,      -0.70675
149.072,11.72833,      -0.70739
149.591,11.78000,      -0.70823
150.107,11.83167,      -0.70896
150.62,11.88333,      -0.70999
151.141,11.93500,      -0.71103
151.658,11.98667,      -0.71186
152.174,12.03833,      -0.71289
152.693,12.09000,      -0.71392
153.21,12.14167,      -0.71505
153.725,12.19333,      -0.71608
154.244,12.24500,      -0.71721
154.759,12.29667,      -0.71844
155.276,12.34833,      -0.71956
155.795,12.40000,      -0.72050
156.31,12.45167,      -0.72183
156.827,12.50333,      -0.72286
157.344,12.55500,      -0.72408
157.859,12.60667,      -0.72541
158.375,12.65833,      -0.72644
158.893,12.71000,      -0.72786
159.412,12.76167,      -0.72920
159.921,12.81333,      -0.73041
160.439,12.86500,      -0.73154
160.957,12.91667,      -0.73267
161.471,12.96833,      -0.73400
161.991,13.02000,      -0.73543
162.509,13.07167,      -0.73686
163.025,13.12333,      -0.73819
163.54,13.17500,      -0.73971
164.055,13.22667,      -0.74164
164.572,13.27833,      -0.74406
165.089,13.33000,      -0.74619
165.606,13.38167,      -0.74801
166.122,13.43333,      -0.74934
166.643,13.48500,      -0.75087
167.157,13.53667,      -0.75319
167.672,13.58833,      -0.75521
168.189,13.64000,      -0.75694
168.707,13.69167,      -0.75868
169.223,13.74333,      -0.76060
169.738,13.79500,      -0.76272
170.255,13.84667,      -0.76435
170.772,13.89833,      -0.76657
171.288,13.95000,      -0.76830
171.805,14.00167,      -0.77053
172.324,14.05333,      -0.77256
172.837,14.10500,      -0.77478
173.353,14.15667,      -0.77681
173.869,14.20833,      -0.77963
174.386,14.26000,      -0.78226
174.902,14.31167,      -0.78449
175.419,14.36333,      -0.78661
175.937,14.41500,      -0.78894
176.456,14.46667,      -0.79147
176.973,14.51833,      -0.79400
177.489,14.57000,      -0.79673
178.007,14.62167,      -0.79916
178.525,14.67333,      -0.80168
179.041,14.72500,      -0.80451
179.56,14.77667,      -0.80734
180.077,14.82833,      -0.81037
180.594,14.88000,      -0.81340
181.11,14.93167,      -0.81693
181.627,14.98333,      -0.82036
182.143,15.03500,      -0.82378
182.658,15.08667,      -0.82701
183.178,15.13833,      -0.83044
183.693,15.19000,      -0.83408
184.213,15.24167,      -0.83751
184.727,15.29333,      -0.84094
185.241,15.34500,      -0.84436
185.758,15.39667,      -0.84820
186.276,15.44833,      -0.85173
186.792,15.50000,      -0.85557
187.306,15.55167,      -0.85910
187.824,15.60333,      -0.86333
188.341,15.65500,      -0.86727
188.859,15.70667,      -0.87120
189.374,15.75833,      -0.87553
189.892,15.81000,      -0.87927
190.41,15.86167,      -0.88371
190.926,15.91333,      -0.88794
191.442,15.96500,      -0.89278
191.961,16.01667,      -0.89722
192.478,16.06833,      -0.90175
192.993,16.12000,      -0.90619
193.513,16.17167,      -0.91023
194.031,16.22333,      -0.91507
194.545,16.27500,      -0.91991
195.063,16.32667,      -0.92505
195.583,16.37833,      -0.92999
196.098,16.43000,      -0.93553
196.616,16.48167,      -0.94047
197.129,16.53333,      -0.94581
197.646,16.58500,      -0.95085
198.163,16.63667,      -0.95559
198.683,16.68833,      -0.96054
199.2,16.74000,      -0.96509
199.717,16.79167,      -0.97043
200.231,16.84333,      -0.97527
200.749,16.89500,      -0.98072
201.266,16.94667,      -0.98566
201.78,16.99833,      -0.99081
202.294,17.05000,      -0.99605
202.811,17.10167,      -1.00120
203.327,17.15333,      -1.00695
203.847,17.20500,      -1.01170
204.365,17.25667,      -1.01735
204.881,17.30833,      -1.02249
205.396,17.36000,      -1.02784
205.919,17.41167,      -1.03299
206.43,17.46333,      -1.03833
206.949,17.51500,      -1.04378
207.462,17.56667,      -1.04873
207.983,17.61833,      -1.05428
208.502,17.67000,      -1.05953
209.018,17.72167,      -1.06497
209.534,17.77333,      -1.07042
210.048,17.82500,      -1.07627
210.566,17.87667,      -1.08181
211.081,17.92833,      -1.08726
211.595,17.98000,      -1.09261
212.115,18.03167,      -1.09816
212.631,18.08333,      -1.10451
213.147,18.13500,      -1.11066
213.66,18.18667,      -1.11691
214.181,18.23833,      -1.12246
214.696,18.29000,      -1.12851
215.212,18.34167,      -1.13406
215.725,18.39333,      -1.14050
216.241,18.44500,      -1.14696
216.76,18.49667,      -1.15311
217.28,18.54833,      -1.15916
217.793,18.60000,      -1.16571
218.313,18.65167,      -1.17356
218.83,18.70333,      -1.18001
219.347,18.75500,      -1.18696
219.864,18.80667,      -1.19381
220.379,18.85833,      -1.20056
220.897,18.91000,      -1.20821
221.409,18.96167,      -1.21535
221.93,19.01333,      -1.22321
222.445,19.06500,      -1.23086
222.959,19.11667,      -1.23881
223.476,19.16833,      -1.24676
223.992,19.22000,      -1.25501
224.511,19.27167,      -1.26266
225.031,19.32333,      -1.27112
225.548,19.37500,      -1.27977
226.066,19.42667,      -1.28832
226.582,19.47833,      -1.29737
227.096,19.53000,      -1.30612
227.612,19.58167,      -1.31577
228.127,19.63333,      -1.32482
228.648,19.68500,      -1.33477
229.165,19.73667,      -1.34413
229.68,19.78833,      -1.35498
230.197,19.84000,      -1.36563
230.717,19.89167,      -1.37548
231.231,19.94333,      -1.38673
231.746,19.99500,      -1.39738
232.264,20.04667,      -1.40943
232.776,20.09833,      -1.42068
233.293,20.15000,      -1.43274
233.812,20.20167,      -1.44499
234.326,20.25333,      -1.45664
234.843,20.30500,      -1.46969
235.363,20.35667,      -1.49345
235.877,20.40833,      -1.50640
236.391,20.46000,      -1.51605
236.908,20.51167,      -1.52820
237.424,20.56333,      -1.55245
237.944,20.61500,      -1.56271
238.461,20.66667,      -1.57456
238.98,20.71833,      -1.58671
239.495,20.77000,      -1.61126
240.014,20.82167,      -1.62242
240.531,20.87333,      -1.64747
241.048,20.92500,      -1.66362
241.567,20.97667,      -1.68137
242.08,21.02833,      -1.69802
242.598,21.08000,      -1.71648
243.114,21.13167,      -1.73563
243.628,21.18333,      -1.75388
244.142,21.23500,      -1.77323
244.656,21.28667,      -1.79118
245.174,21.33833,      -1.81104
245.686,21.39000,      -1.82999
246.206,21.44167,      -1.85104
246.72,21.49333,      -1.87099
247.243,21.54500,      -1.89205
247.76,21.59667,      -1.91350
248.278,21.64833,      -1.93395
248.795,21.70000,      -1.95620
249.31,21.75167,      -1.97765
249.829,21.80333,      -2.00021
250.343,21.85500,      -2.02256
250.861,21.90667,      -2.04601
251.375,21.95833,      -2.06816
251.89,22.01000,      -2.09201
252.405,22.06167,      -2.11626
252.922,22.11333,      -2.13942
253.438,22.16500,      -2.16467
253.953,22.21667,      -2.18842
254.47,22.26833,      -2.21327
254.984,22.32000,      -2.23702
255.503,22.37167,      -2.26258
256.017,22.42333,      -2.28703
256.536,22.47500,      -2.31208
257.052,22.52667,      -2.33813
257.572,22.57833,      -2.36278
258.085,22.63000,      -2.38933
258.604,22.68167,      -2.41469
259.119,22.73333,      -2.44144
259.636,22.78500,      -2.46659
260.153,22.83667,      -2.49304
260.669,22.88833,      -2.51879
261.189,22.94000,      -2.54564
261.708,22.99167,      -2.57249
262.222,23.04333,      -2.59794
262.737,23.09500,      -2.62449
263.255,23.14667,      -2.64975
263.769,23.19833,      -2.67770
264.288,23.25000,      -2.70235
264.804,23.30167,      -2.72990
265.319,23.35333,      -2.75585
265.835,23.40500,      -2.78260
266.352,23.45667,      -2.80965
266.869,23.50833,      -2.83520
267.384,23.56000,      -2.86285
267.898,23.61167,      -2.88790
268.412,23.66333,      -2.91455
268.929,23.71500,      -2.93990
269.445,23.76667,      -2.96645
269.959,23.81833,      -2.99160
270.476,23.87000,      -3.01775
270.994,23.92167,      -3.04460
271.511,23.97333,      -3.06895
272.026,24.02500,      -3.09469
272.543,24.07667,      -3.11894
273.061,24.12833,      -3.14499
273.579,24.18000,      -3.16944
274.093,24.23167,      -3.19529
274.609,24.28333,      -3.21914
275.128,24.33500,      -3.24419
275.643,24.38667,      -3.27003
276.16,24.43833,      -3.29348
276.677,24.49000,      -3.31913
277.192,24.54167,      -3.34288
277.708,24.59333,      -3.36793
278.222,24.64500,      -3.39077
278.742,24.69667,      -3.41602
279.258,24.74833,      -3.43797
279.774,24.80000,      -3.46432
280.293,24.85167,      -3.48836
280.807,24.90333,      -3.51121
281.326,24.95500,      -3.53626
281.842,25.00667,      -3.55910
282.36,25.05833,      -3.58295
282.874,25.11000,      -3.60580
283.393,25.16167,      -3.62974
283.909,25.21333,      -3.65229
284.424,25.26500,      -3.67593
284.94,25.31667,      -3.69978
285.456,25.36833,      -3.72283
285.972,25.42000,      -3.74677
286.49,25.47167,      -3.76942
287.009,25.52333,      -3.79286
287.525,25.57500,      -3.81531
288.04,25.62667,      -3.83885
288.553,25.67833,      -3.86130
289.073,25.73000,      -3.88564
289.587,25.78167,      -3.91008
290.102,25.83333,      -3.93323
290.618,25.88500,      -3.95697
291.136,25.93667,      -3.98052
291.651,25.98833,      -4.00496
292.168,26.04000,      -4.02750
292.689,26.09167,      -4.05234
293.205,26.14333,      -4.07499
293.723,26.19500,      -4.10093
294.242,26.24667,      -4.12607
294.763,26.29833,      -4.15001
295.279,26.35000,      -4.17546
295.796,26.40167,      -4.19960
296.314,26.45333,      -4.22544
296.828,26.50500,      -4.24958
297.345,26.55667,      -4.27652
297.864,26.60833,      -4.30136
298.38,26.66000,      -4.32840
298.895,26.71167,      -4.35534
299.408,26.76333,      -4.38129
299.919,26.81500,      -4.40963
300.439,26.86667,      -4.43636
300.953,26.91833,      -4.46481
301.468,26.97000,      -4.49175
301.985,27.02167,      -4.52149
302.499,27.07333,      -4.54963
303.016,27.12500,      -4.58057
303.534,27.17667,      -4.61171
304.051,27.22833,      -4.64045
304.57,27.28000,      -4.67289
305.09,27.33167,      -4.70343
305.604,27.38333,      -4.73647
306.121,27.43500,      -4.76781
306.641,27.48667,      -4.80185
307.157,27.53833,      -4.83539
307.672,27.59000,      -4.87123
308.191,27.64167,      -4.90767
308.71,27.69333,      -4.94251
309.228,27.74500,      -4.98115
309.742,27.79667,      -5.01739
310.257,27.84833,      -5.05693
310.771,27.90000,      -5.09497
311.289,27.95167,      -5.13611
311.806,28.00333,      -5.17575
312.324,28.05500,      -5.21869
312.841,28.10667,      -5.26253
313.361,28.15833,      -5.30237
313.879,28.21000,      -5.34951
314.392,28.26167,      -5.39375
314.908,28.31333,      -5.44129
315.425,28.36500,      -5.48643
315.941,28.41667,      -5.53527
316.457,28.46833,      -5.58181
316.975,28.52000,      -5.63175
317.491,28.57167,      -5.68269
318.006,28.62333,      -5.73003
318.522,28.67500,      -5.78197
319.041,28.72667,      -5.83071
319.555,28.77833,      -5.88295
320.075,28.83000,      -5.93259
320.593,28.88167,      -5.98553
321.109,28.93333,      -6.03467
321.627,28.98500,      -6.08721
322.138,29.03667,      -6.13935
322.658,29.08833,      -6.18839
323.174,29.14000,      -6.24043
323.69,29.19167,      -6.28797
324.209,29.24333,      -6.33881
324.725,29.29500,      -6.38585
325.24,29.34667,      -6.43529
325.756,29.39833,      -6.47962
326.269,29.45000,      -6.52547
326.787,29.50167,      -6.57101
327.299,29.55333,      -6.61235
327.817,29.60500,      -6.65388
328.335,29.65667,      -6.69192
328.853,29.70833,      -6.73086
329.37,29.76000,      -6.76560
329.886,29.81167,      -6.80124
330.402,29.86333,      -6.83358
330.917,29.91500,      -6.86612
331.433,29.96667,      -6.89776
331.95,30.01833,      -6.92520
332.465,30.07000,      -6.95364
332.98,30.12167,      -6.97778
333.497,30.17333,      -7.00271
334.011,30.22500,      -7.02495
334.526,30.27667,      -7.04769
335.042,30.32833,      -7.06803
335.557,30.38000,      -7.08877
336.074,30.43167,      -7.10891
336.589,30.48333,      -7.12595
337.104,30.53500,      -7.14378
337.622,30.58667,      -7.15822
338.137,30.63833,      -7.16956
338.652,30.69000,      -7.18160
339.17,30.74167,      -7.19684
339.687,30.79333,      -7.21658
340.205,30.84500,      -7.22741
340.721,30.89667,      -7.23935
341.235,30.94833,      -7.25089
341.755,31.00000,      -7.26383
342.271,31.05167,      -7.27606
342.788,31.10333,      -7.28870
343.303,31.15500,      -7.30004
343.822,31.20667,      -7.31228
344.338,31.25833,      -7.32421
344.854,31.31000,      -7.33485
345.368,31.36167,      -7.34639
345.886,31.41333,      -7.35683
346.404,31.46500,      -7.36806
346.922,31.51667,      -7.37790
347.439,31.56833,      -7.38854
347.954,31.62000,      -7.39857
348.474,31.67167,      -7.40871
348.991,31.72333,      -7.41834
349.505,31.77500,      -7.42808
350.022,31.82667,      -7.43812
350.538,31.87833,      -7.44755
351.056,31.93000,      -7.45649
351.571,31.98167,      -7.46553
352.086,32.03333,      -7.47476
352.602,32.08500,      -7.48320
353.118,32.13667,      -7.49193
353.633,32.18833,      -7.49987
354.152,32.24000,      -7.50860
354.67,32.29167,      -7.51694
355.187,32.34333,      -7.52497
355.702,32.39500,      -7.53311
356.221,32.44667,      -7.54004
356.734,32.49833,      -7.54788
357.254,32.55000,      -7.55532
357.768,32.60167,      -7.56365
358.289,32.65333,      -7.57158
358.803,32.70500,      -7.57892
359.317,32.75667,      -7.58645
359.831,32.80833,      -7.59349
360.349,32.86000,      -7.60122
360.864,32.91167,      -7.60786
361.382,32.96333,      -7.61459
361.9,33.01500,      -7.62122
362.415,33.06667,      -7.62796
362.93,33.11833,      -7.63489
363.45,33.17000,      -7.64092
363.965,33.22167,      -7.64706
364.484,33.27333,      -7.65379
364.997,33.32500,      -7.66012
365.513,33.37667,      -7.66626
366.029,33.42833,      -7.67279
366.543,33.48000,      -7.67822
367.061,33.53167,      -7.68435
367.576,33.58333,      -7.69059
368.093,33.63500,      -7.69642
368.607,33.68667,      -7.70275
369.123,33.73833,      -7.70838
369.64,33.79000,      -7.71451
370.155,33.84167,      -7.72025
370.674,33.89333,      -7.72647
371.188,33.94500,      -7.73161
371.703,33.99667,      -7.73734
372.224,34.04833,      -7.74297
372.741,34.10000,      -7.74840
373.256,34.15167,      -7.75433
373.774,34.20333,      -7.75916
374.287,34.25500,      -7.76489
374.807,34.30667,      -7.77002
375.32,34.35833,      -7.77555
375.838,34.41000,      -7.78068
376.355,34.46167,      -7.78591
376.872,34.51333,      -7.79154
377.388,34.56500,      -7.79677
377.903,34.61667,      -7.80220
378.421,34.66833,      -7.80713
378.937,34.72000,      -7.81255
379.454,34.77167,      -7.81818
379.97,34.82333,      -7.82381
380.486,34.87500,      -7.82914
381.005,34.92667,      -7.83447
381.52,34.97833,      -7.83969
382.036,35.03000,      -7.84462
382.551,35.08167,      -7.84995
383.068,35.13333,      -7.85478
383.585,35.18500,      -7.85970
384.102,35.23667,      -7.86433
384.616,35.28833,      -7.86966
385.136,35.34000,      -7.87458
385.65,35.39167,      -7.87991
386.166,35.44333,      -7.88504
386.682,35.49500,      -7.88986
387.2,35.54667,      -7.89479
387.716,35.59833,      -7.89931
388.233,35.65000,      -7.90454
388.746,35.70167,      -7.90897
389.262,35.75333,      -7.91409
389.775,35.80500,      -7.91892
390.292,35.85667,      -7.92414
390.812,35.90833,      -7.92926
391.327,35.96000,      -7.93369
391.84,36.01167,      -7.93901
392.359,36.06333,      -7.94384
392.873,36.11500,      -7.94876
393.39,36.16667,      -7.95379
393.903,36.21833,      -7.95891
394.42,36.27000,      -7.96363
394.935,36.32167,      -7.96855
395.451,36.37333,      -7.97318
395.971,36.42500,      -7.97790
396.485,36.47667,      -7.98242
397.001,36.52833,      -7.98724
397.517,36.58000,      -7.99266
398.037,36.63167,      -7.99728
398.552,36.68333,      -8.00211
399.067,36.73500,      -8.00653
399.583,36.78667,      -8.01135
400.104,36.83833,      -8.01596
400.62,36.89000,      -8.02029
401.135,36.94167,      -8.02501
401.653,36.99333,      -8.02953
402.167,37.04500,      -8.03415
402.683,37.09667,      -8.03847
403.199,37.14833,      -8.04339
403.715,37.20000,      -8.04741
404.233,37.25167,      -8.05153
404.747,37.30333,      -8.05605
405.266,37.35500,      -8.06016
405.779,37.40667,      -8.06488
406.298,37.45833,      -8.06920
406.815,37.51000,      -8.07382
407.334,37.56167,      -8.07854
407.851,37.61333,      -8.08316
408.365,37.66500,      -8.08768
408.88,37.71667,      -8.09240
409.393,37.76833,      -8.09672
409.908,37.82000,      -8.10094
410.424,37.87167,      -8.10565
410.94,37.92333,      -8.11007
411.458,37.97500,      -8.11469
411.974,38.02667,      -8.11860
412.492,38.07833,      -8.12322
413.009,38.13000,      -8.12774
413.527,38.18167,      -8.13226
414.041,38.23333,      -8.13647
414.56,38.28500,      -8.14049
415.079,38.33667,      -8.14500
415.594,38.38833,      -8.14922
416.111,38.44000,      -8.15374
416.626,38.49167,      -8.15816
417.142,38.54333,      -8.16268
417.656,38.59500,      -8.16689
418.173,38.64667,      -8.17081
418.688,38.69833,      -8.17532
419.205,38.75000,      -8.17924
419.724,38.80167,      -8.18355
420.24,38.85333,      -8.18717
420.755,38.90500,      -8.19119
421.275,38.95667,      -8.19540
421.788,39.00833,      -8.19972
422.307,39.06000,      -8.20413
422.82,39.11167,      -8.20825
423.335,39.16333,      -8.21226
423.854,39.21500,      -8.21658
424.369,39.26667,      -8.22099
424.889,39.31833,      -8.22490
425.404,39.37000,      -8.22912
425.918,39.42167,      -8.23333
426.434,39.47333,      -8.23745
426.951,39.52500,      -8.24106
427.468,39.57667,      -8.24538
427.985,39.62833,      -8.24949
428.5,39.68000,      -8.25340
429.017,39.73167,      -8.25682
429.535,39.78333,      -8.26113
430.049,39.83500,      -8.26564
430.567,39.88667,      -8.26946
431.081,39.93833,      -8.27337
431.596,39.99000,      -8.27738
432.111,40.04167,      -8.28080
432.63,40.09333,      -8.28501
433.145,40.14500,      -8.28902
433.661,40.19667,      -8.29303
434.175,40.24833,      -8.29665
434.694,40.30000,      -8.30036
435.213,40.35167,      -8.30427
435.726,40.40333,      -8.30808
436.242,40.45500,      -8.31189
436.757,40.50667,      -8.31581
437.271,40.55833,      -8.31942
437.789,40.61000,      -8.32353
438.307,40.66167,      -8.32744
438.823,40.71333,      -8.33115
439.34,40.76500,      -8.33496
439.856,40.81667,      -8.33837
440.371,40.86833,      -8.34229
440.886,40.92000,      -8.34660
441.403,40.97167,      -8.35021
441.919,41.02333,      -8.35362
442.434,41.07500,      -8.35733
442.954,41.12667,      -8.36134
443.472,41.17833,      -8.36464
443.988,41.23000,      -8.36825
444.505,41.28167,      -8.37157
445.021,41.33333,      -8.37528
445.537,41.38500,      -8.37889
446.054,41.43667,      -8.38240
446.568,41.48833,      -8.38630
447.084,41.54000,      -8.38941
447.597,41.59167,      -8.39253
448.114,41.64333,      -8.39553
448.634,41.69500,      -8.39894
449.15,41.74667,      -8.40265
449.662,41.79833,      -8.40666
450.182,41.85000,      -8.41057
450.695,41.90167,      -8.41438
451.213,41.95333,      -8.41728
451.731,42.00500,      -8.42079
452.247,42.05667,      -8.42380
452.765,42.10833,      -8.42621
453.28,42.16000,      -8.42961
453.796,42.21167,      -8.43302
454.314,42.26333,      -8.43663
454.829,42.31500,      -8.43984
455.344,42.36667,      -8.44315
455.86,42.41833,      -8.44615
456.376,42.47000,      -8.44926
456.898,42.52167,      -8.45216
457.416,42.57333,      -8.45487
457.94,42.62500,      -8.45797
458.454,42.67667,      -8.46048
458.97,42.72833,      -8.46359
459.484,42.78000,      -8.46720
459.995,42.83167,      -8.47081
460.507,42.88333,      -8.47412
461.021,42.93500,      -8.47762
461.533,42.98667,      -8.48103
462.048,43.03833,      -8.48394
462.567,43.09000,      -8.48644
463.084,43.14167,      -8.48884
463.6,43.19333,      -8.49155
464.116,43.24500,      -8.49435
464.633,43.29667,      -8.49746
465.152,43.34833,      -8.50036
465.665,43.40000,      -8.50377
466.182,43.45167,      -8.50697
466.697,43.50333,      -8.50968
467.214,43.55500,      -8.51198
467.729,43.60667,      -8.51448
468.247,43.65833,      -8.51729
468.767,43.71000,      -8.51999
469.284,43.76167,      -8.52259
469.801,43.81333,      -8.52600
470.317,43.86500,      -8.52850
470.832,43.91667,      -8.53091
471.348,43.96833,      -8.53351
471.862,44.02000,      -8.53662
472.378,44.07167,      -8.53962
472.891,44.12333,      -8.54252
473.41,44.17500,      -8.54522
473.929,44.22667,      -8.54823
474.447,44.27833,      -8.55113
474.964,44.33000,      -8.55333
475.48,44.38167,      -8.55493
475.997,44.43333,      -8.55634
476.514,44.48500,      -8.55804
477.029,44.53667,      -8.56054
477.544,44.58833,      -8.56385
478.059,44.64000,      -8.56685
478.576,44.69167,      -8.56895
479.09,44.74333,      -8.57155
479.603,44.79500,      -8.57406
480.12,44.84667,      -8.57666
480.637,44.89833,      -8.57876
481.154,44.95000,      -8.58066
481.669,45.00167,      -8.58316
482.184,45.05333,      -8.58596
482.7,45.10500,      -8.58886
483.218,45.15667,      -8.59146
483.735,45.20833,      -8.59396
484.251,45.26000,      -8.59586
484.768,45.31167,      -8.59796
485.284,45.36333,      -8.60036
485.805,45.41500,      -8.60296
486.321,45.46667,      -8.60566
486.841,45.51833,      -8.60836
487.355,45.57000,      -8.61046
487.871,45.62167,      -8.61286
488.387,45.67333,      -8.61496
488.902,45.72500,      -8.61696
489.415,45.77667,      -8.61926
489.931,45.82833,      -8.62126
490.448,45.88000,      -8.62346
490.964,45.93167,      -8.62576
491.482,45.98333,      -8.62775
491.999,46.03500,      -8.62925
492.517,46.08667,      -8.63065
493.032,46.13833,      -8.63245
493.549,46.19000,      -8.63405
494.061,46.24167,      -8.63645
494.576,46.29333,      -8.63865
495.09,46.34500,      -8.64075
495.61,46.39667,      -8.64294
496.126,46.44833,      -8.64554
496.64,46.50000,      -8.64744
497.157,46.55167,      -8.64913
497.676,46.60333,      -8.65123
498.19,46.65500,      -8.65333
498.706,46.70667,      -8.65532
499.223,46.75833,      -8.65672
499.739,46.81000,      -8.65852
500.254,46.86167,      -8.66052
500.773,46.91333,      -8.66291
501.284,46.96500,      -8.66481
501.804,47.01667,      -8.66670
502.321,47.06833,      -8.66870
502.836,47.12000,      -8.67050
503.352,47.17167,      -8.67199
503.87,47.22333,      -8.67369
504.385,47.27500,      -8.67609
504.9,47.32667,      -8.67808
505.416,47.37833,      -8.67958
505.936,47.43000,      -8.68107
506.453,47.48167,      -8.68237
506.968,47.53333,      -8.68417
507.484,47.58500,      -8.68576
507.995,47.63667,      -8.68796
508.513,47.68833,      -8.68995
509.025,47.74000,      -8.69185
509.541,47.79167,      -8.69375
510.057,47.84333,      -8.69504
510.574,47.89500,      -8.69733
511.09,47.94667,      -8.69923
511.606,47.99833,      -8.70113
512.123,48.05000,      -8.70272
512.641,48.10167,      -8.70441
513.16,48.15333,      -8.70560
513.677,48.20500,      -8.70720
514.193,48.25667,      -8.70880
514.707,48.30833,      -8.71019
515.228,48.36000,      -8.71188
515.743,48.41167,      -8.71298
516.258,48.46333,      -8.71478
516.772,48.51500,      -8.71677
517.292,48.56667,      -8.71846
517.809,48.61833,      -8.72035
518.324,48.67000,      -8.72325
518.841,48.72167,      -8.72534
519.362,48.77333,      -8.72683
519.877,48.82500,      -8.72803
520.395,48.87667,      -8.72882
520.908,48.92833,      -8.73002
521.424,48.98000,      -8.73191
521.942,49.03167,      -8.73360
522.458,49.08333,      -8.73450
522.972,49.13500,      -8.73549
523.49,49.18667,      -8.73638
524.003,49.23833,      -8.73738
524.521,49.29000,      -8.73867
525.038,49.34167,      -8.74016
525.554,49.39333,      -8.74226
526.067,49.44500,      -8.74475
526.582,49.49667,      -8.74754
527.098,49.54833,      -8.74993
527.612,49.60000,      -8.75103
528.128,49.65167,      -8.75152
528.644,49.70333,      -8.75231
529.163,49.75500,      -8.75320
529.679,49.80667,      -8.75439
530.196,49.85833,      -8.75558
530.713,49.91000,      -8.75687
531.231,49.96167,      -8.75836
531.748,50.01333,      -8.75995
532.266,50.06500,      -8.76154
532.78,50.11667,      -8.76354
533.298,50.16833,      -8.76563
533.811,50.22000,      -8.76712
534.328,50.27167,      -8.76851
534.844,50.32333,      -8.76990
535.36,50.37500,      -8.77099
535.88,50.42667,      -8.77168
536.399,50.47833,      -8.77247
536.915,50.53000,      -8.77366
537.433,50.58167,      -8.77485
537.95,50.63333,      -8.77574
538.464,50.68500,      -8.77653
538.981,50.73667,      -8.77742
539.495,50.78833,      -8.77861
540.011,50.84000,      -8.77980
540.528,50.89167,      -8.78089
541.043,50.94333,      -8.78208
541.559,50.99500,      -8.78307
542.077,51.04667,      -8.78446
542.594,51.09833,      -8.78615
543.112,51.15000,      -8.78854
543.627,51.20167,      -8.79023
544.142,51.25333,      -8.79192
544.657,51.30500,      -8.79320
545.175,51.35667,      -8.79439
545.689,51.40833,      -8.79608
546.207,51.46000,      -8.79697
546.717,51.51167,      -8.79796
547.231,51.56333,      -8.79935
547.746,51.61500,      -8.80114
548.264,51.66667,      -8.80322
548.777,51.71833,      -8.80581
549.294,51.77000,      -8.80740
549.812,51.82167,      -8.80838
550.33,51.87333,      -8.80917
550.848,51.92500,      -8.81005
551.365,51.97667,      -8.81084
551.883,52.02833,      -8.81143
552.399,52.08000,      -8.81231
552.913,52.13167,      -8.81360
553.428,52.18333,      -8.81489
553.943,52.23500,      -8.81618
554.459,52.28667,      -8.81766
554.975,52.33833,      -8.81865
555.489,52.39000,      -8.81963
556.009,52.44167,      -8.82051
556.527,52.49333,      -8.82120
557.045,52.54500,      -8.82198
557.562,52.59667,      -8.82267
558.08,52.64833,      -8.82395
558.597,52.70000,      -8.82514
559.112,52.75167,      -8.82652
559.628,52.80333,      -8.82791
560.146,52.85500,      -8.82899
560.664,52.90667,      -8.82988
561.18,52.95833,      -8.83086
561.695,53.01000,      -8.83195
562.212,53.06167,      -8.83303
562.728,53.11333,      -8.83431
563.239,53.16500,      -8.83530
563.756,53.21667,      -8.83628
564.274,53.26833,      -8.83716
564.794,53.32000,      -8.83835
565.31,53.37167,      -8.83973
565.827,53.42333,      -8.84071
566.343,53.47500,      -8.84189
566.859,53.52667,      -8.84298
567.375,53.57833,      -8.84416
567.89,53.63000,      -8.84474
568.407,53.68167,      -8.84563
568.922,53.73333,      -8.84681
569.439,53.78500,      -8.84829
569.954,53.83667,      -8.84957
570.469,53.88833,      -8.85055
570.991,53.94000,      -8.85153
571.505,53.99167,      -8.85251
572.02,54.04333,      -8.85380
572.537,54.09500,      -8.85498
573.054,54.14667,      -8.85606
573.576,54.19833,      -8.85693
574.093,54.25000,      -8.85791
574.613,54.30167,      -8.85869
575.127,54.35333,      -8.85948
575.639,54.40500,      -8.86006
576.16,54.45667,      -8.86083
576.674,54.50833,      -8.86182
577.191,54.56000,      -8.86319
577.704,54.61167,      -8.86448
578.222,54.66333,      -8.86535
578.742,54.71500,      -8.86613
579.259,54.76667,      -8.86671
579.773,54.81833,      -8.86749
580.289,54.87000,      -8.86827
580.807,54.92167,      -8.86924
581.324,54.97333,      -8.87012
581.843,55.02500,      -8.87060
582.356,55.07667,      -8.87128
582.87,55.12833,      -8.87206
583.385,55.18000,      -8.87324
583.901,55.23167,      -8.87512
584.417,55.28333,      -8.87739
584.938,55.33500,      -8.87866
585.456,55.38667,      -8.87944
585.977,55.43833,      -8.87991
586.495,55.49000,      -8.88069
587.013,55.54167,      -8.88167
587.527,55.59333,      -8.88265
588.041,55.64500,      -8.88362
588.557,55.69667,      -8.88450
589.074,55.74833,      -8.88507
589.595,55.80000,      -8.88555
590.113,55.85167,      -8.88582
590.63,55.90333,      -8.88619
591.143,55.95500,      -8.88677
591.66,56.00667,      -8.88755
592.182,56.05833,      -8.88882
592.696,56.11000,      -8.88969
593.209,56.16167,      -8.89027
593.725,56.21333,      -8.89074
594.241,56.26500,      -8.89152
594.76,56.31667,      -8.89239
595.279,56.36833,      -8.89306
595.802,56.42000,      -8.89293
596.32,56.47167,      -8.89360
596.834,56.52333,      -8.89478
597.351,56.57500,      -8.89585
597.865,56.62667,      -8.89713
598.38,56.67833,      -8.89790
598.893,56.73000,      -8.89877
599.407,56.78167,      -8.89965
599.924,56.83333,      -8.90062
600.439,56.88500,      -8.90159
600.959,56.93667,      -8.90266
601.473,56.98833,      -8.90333
601.989,57.04000,      -8.90440
602.505,57.09167,      -8.90487
603.022,57.14333,      -8.90524
603.541,57.19500,      -8.90601
604.058,57.24667,      -8.90698
604.573,57.29833,      -8.90805
605.092,57.35000,      -8.90912
605.607,57.40167,      -8.90999
606.122,57.45333,      -8.91056
606.643,57.50500,      -8.91123
607.163,57.55667,      -8.91219
607.683,57.60833,      -8.91296
608.202,57.66000,      -8.91363
608.718,57.71167,      -8.91420
609.236,57.76333,      -8.91417
609.753,57.81500,      -8.91423
610.27,57.86667,      -8.91530
610.785,57.91833,      -8.91697
611.298,57.97000,      -8.91884
611.816,58.02167,      -8.92011
612.33,58.07333,      -8.92108
612.849,58.12500,      -8.92184
613.365,58.17667,      -8.92231
613.88,58.22833,      -8.92308
614.395,58.28000,      -8.92375
614.911,58.33167,      -8.92461
615.426,58.38333,      -8.92518
615.946,58.43500,      -8.92584
616.466,58.48667,      -8.92640
616.984,58.53833,      -8.92687
617.504,58.59000,      -8.92753
618.022,58.64167,      -8.92840
618.537,58.69333,      -8.92947
619.054,58.74500,      -8.93063
619.568,58.79667,      -8.93160
620.081,58.84833,      -8.93207
620.595,58.90000,      -8.93264
621.114,58.95167,      -8.93330
621.631,59.00333,      -8.93406
622.146,59.05500,      -8.93473
622.664,59.10667,      -8.93529
623.183,59.15833,      -8.93595
623.696,59.21000,      -8.93592
624.218,59.26167,      -8.93648
624.731,59.31333,      -8.93804
625.251,59.36500,      -8.93961
625.767,59.41667,      -8.94097
626.281,59.46833,      -8.94163
626.801,59.52000,      -8.94199
627.317,59.57167,      -8.94245
627.837,59.62333,      -8.94282
628.352,59.67500,      -8.94308
628.869,59.72667,      -8.94344
629.382,59.77833,      -8.94391
629.901,59.83000,      -8.94467
630.417,59.88167,      -8.94563
630.931,59.93333,      -8.94609
631.447,59.98500,      -8.94696
631.967,60.03667,      -8.94792
632.483,60.08833,      -8.94898
632.999,60.14000,      -8.94994
633.514,60.19167,      -8.95090
634.032,60.24333,      -8.95166
634.548,60.29500,      -8.95252
635.062,60.34667,      -8.95328
635.579,60.39833,      -8.95384
636.096,60.45000,      -8.95430
636.611,60.50167,      -8.95497
637.124,60.55333,      -8.95553
637.639,60.60500,      -8.95619
638.157,60.65667,      -8.95695
638.674,60.70833,      -8.95741
639.188,60.76000,      -8.95797
639.706,60.81167,      -8.95862
640.224,60.86333,      -8.95918
640.738,60.91500,      -8.96004
641.254,60.96667,      -8.96090
641.768,61.01833,      -8.96196
642.28,61.07000,      -8.96293
642.796,61.12167,      -8.96398
643.311,61.17333,      -8.96474
643.83,61.22500,      -8.96520
644.348,61.27667,      -8.96575
644.863,61.32833,      -8.96611
645.382,61.38000,      -8.96667
645.898,61.43167,      -8.96733
646.415,61.48333,      -8.96789
646.928,61.53500,      -8.96855
647.445,61.58667,      -8.96910
647.958,61.63833,      -8.96976
648.478,61.69000,      -8.97031
648.995,61.74167,      -8.97077
649.514,61.79333,      -8.97113
650.03,61.84500,      -8.97178
650.549,61.89667,      -8.97234
651.068,61.94833,      -8.97320
651.582,62.00000,      -8.97385
652.096,62.05167,      -8.97441
652.618,62.10333,      -8.97506
653.137,62.15500,      -8.97582
653.653,62.20667,      -8.97638
654.172,62.25833,      -8.97683
654.687,62.31000,      -8.97759
655.201,62.36167,      -8.97835
655.714,62.41333,      -8.97931
656.227,62.46500,      -8.98017
656.739,62.51667,      -8.98092
657.252,62.56833,      -8.98148
657.769,62.62000,      -8.98213
658.286,62.67167,      -8.98268
658.803,62.72333,      -8.98304
659.321,62.77500,      -8.98359
659.837,62.82667,      -8.98405
660.355,62.87833,      -8.98460
660.873,62.93000,      -8.98525
661.391,62.98167,      -8.98600
661.909,63.03333,      -8.98666
662.427,63.08500,      -8.98721
662.943,63.13667,      -8.98757
663.461,63.18833,      -8.98792
663.979,63.24000,      -8.98847
664.491,63.29167,      -8.98913
665.006,63.34333,      -8.98958
665.523,63.39500,      -8.98984
666.041,63.44667,      -8.98999
666.556,63.49833,      -8.99064
667.073,63.55000,      -8.99110
667.586,63.60167,      -8.99185
668.102,63.65333,      -8.99230
668.619,63.70500,      -8.99276
669.137,63.75667,      -8.99341
669.653,63.80833,      -8.99386
670.167,63.86000,      -8.99452
670.682,63.91167,      -8.99517
671.197,63.96333,      -8.99592
671.712,64.01500,      -8.99687
672.229,64.06667,      -8.99793
672.747,64.11833,      -8.99848
673.263,64.17000,      -8.99873
673.777,64.22167,      -8.99918
674.294,64.27333,      -8.99983
674.807,64.32500,      -9.00069
675.326,64.37667,      -9.00134
675.845,64.42833,      -9.00208
676.362,64.48000,      -9.00294
676.878,64.53167,      -9.00389
677.396,64.58333,      -9.00464
677.913,64.63500,      -9.00579
678.425,64.68667,      -9.00644
678.942,64.73833,      -9.00730
679.458,64.79000,      -9.00765
679.975,64.84167,      -9.00829
680.495,64.89333,      -9.00885
681.011,64.94500,      -9.00950
681.522,64.99667,      -9.01025
682.035,65.04833,      -9.01090
682.553,65.10000,      -9.01175
683.069,65.15167,      -9.01240
683.583,65.20333,      -9.01245
684.104,65.25500,      -9.01220
684.624,65.30667,      -9.01314
685.146,65.35833,      -9.01419
685.669,65.41000,      -9.01484
686.189,65.46167,      -9.01509
686.707,65.51333,      -9.01574
687.224,65.56500,      -9.01609
687.741,65.61667,      -9.01644
688.26,65.66833,      -9.01659
688.777,65.72000,      -9.01694
689.293,65.77167,      -9.01729
689.804,65.82333,      -9.01784
690.319,65.87500,      -9.01819
690.838,65.92667,      -9.01824
691.351,65.97833,      -9.01869
691.865,66.03000,      -9.01904
692.381,66.08167,      -9.01989
692.898,66.13333,      -9.02074
693.415,66.18500,      -9.02158
693.934,66.23667,      -9.02233
694.449,66.28833,      -9.02308
694.967,66.34000,      -9.02343
695.483,66.39167,      -9.02347
696.002,66.44333,      -9.02372
696.516,66.49500,      -9.02417
697.034,66.54667,      -9.02482
697.546,66.59833,      -9.02567
698.066,66.65000,      -9.02652
698.58,66.70167,      -9.02747
699.098,66.75333,      -9.02791
699.61,66.80500,      -9.02816
700.129,66.85667,      -9.02851
700.65,66.90833,      -9.02865
701.166,66.96000,      -9.02860
701.684,67.01167,      -9.02885
702.2,67.06333,      -9.02920
702.714,67.11500,      -9.02975
703.232,67.16667,      -9.03049
703.746,67.21833,      -9.03124
704.261,67.27000,      -9.03189
704.779,67.32167,      -9.03304
705.294,67.37333,      -9.03389
705.807,67.42500,      -9.03464
706.327,67.47667,      -9.03518
706.843,67.52833,      -9.03563
707.359,67.58000,      -9.03618
707.878,67.63167,      -9.03672
708.394,67.68333,      -9.03747
708.912,67.73500,      -9.03802
709.428,67.78667,      -9.03867
709.942,67.83833,      -9.03922
710.463,67.89000,      -9.03976
710.977,67.94167,      -9.04011
711.497,67.99333,      -9.04055
712.011,68.04500,      -9.04090
712.53,68.09667,      -9.04125
713.046,68.14833,      -9.04170
713.562,68.20000,      -9.04204
714.078,68.25167,      -9.04269
714.595,68.30333,      -9.04314
715.111,68.35500,      -9.04369
715.629,68.40667,      -9.04443
716.147,68.45833,      -9.04558
716.662,68.51000,      -9.04643
717.179,68.56167,      -9.04698
717.696,68.61333,      -9.04762
718.211,68.66500,      -9.04807
718.73,68.71667,      -9.04831
719.253,68.76833,      -9.04876
719.766,68.82000,      -9.04921
720.283,68.87167,      -9.04985
720.8,68.92333,      -9.05030
721.314,68.97500,      -9.05075
721.832,69.02667,      -9.05140
722.348,69.07833,      -9.05194
722.866,69.13000,      -9.05259
723.384,69.18167,      -9.05313
723.895,69.23333,      -9.05378
724.414,69.28500,      -9.05443
724.929,69.33667,      -9.05497
725.445,69.38833,      -9.05552
725.963,69.44000,      -9.05617
726.476,69.49167,      -9.05681
726.996,69.54333,      -9.05736
727.514,69.59500,      -9.05770
728.031,69.64667,      -9.05815
728.546,69.69833,      -9.05849
729.059,69.75000,      -9.05894
729.576,69.80167,      -9.05929
730.091,69.85333,      -9.05973
730.608,69.90500,      -9.06038
731.122,69.95667,      -9.06112
731.644,70.00833,      -9.06167
732.159,70.06000,      -9.06211
732.675,70.11167,      -9.06316
733.186,70.16333,      -9.06381
733.704,70.21500,      -9.06465
734.22,70.26667,      -9.06540
734.736,70.31833,      -9.06584
735.257,70.37000,      -9.06638
735.772,70.42167,      -9.06692
736.291,70.47333,      -9.06737
736.809,70.52500,      -9.06811
737.32,70.57667,      -9.06906
737.835,70.62833,      -9.06990
738.35,70.68000,      -9.07065
738.866,70.73167,      -9.07139
739.379,70.78333,      -9.07184
739.895,70.83500,      -9.07228
740.411,70.88667,      -9.07283
740.93,70.93833,      -9.07327
741.445,70.99000,      -9.07351
741.961,71.04167,      -9.07385
742.481,71.09333,      -9.07399
743.001,71.14500,      -9.07413
743.521,71.19667,      -9.07457
744.04,71.24833,      -9.07541
744.561,71.30000,      -9.07656
745.073,71.35167,      -9.07770
745.589,71.40333,      -9.07885
746.104,71.45500,      -9.07929
746.621,71.50667,      -9.07953
747.138,71.55833,      -9.08027
747.656,71.61000,      -9.08091
748.173,71.66167,      -9.08145
748.688,71.71333,      -9.08189
749.205,71.76500,      -9.08263
749.724,71.81667,      -9.08328
750.238,71.86833,      -9.08402
750.753,71.92000,      -9.08436
751.27,71.97167,      -9.08460
751.782,72.02333,      -9.08514
752.301,72.07500,      -9.08598
752.82,72.12667,      -9.08652
753.333,72.17833,      -9.08656
753.851,72.23000,      -9.08690
754.366,72.28167,      -9.08734
754.882,72.33333,      -9.08748
755.398,72.38500,      -9.08742
755.918,72.43667,      -9.08766
756.432,72.48833,      -9.08800
756.945,72.54000,      -9.08824
757.462,72.59167,      -9.08868
757.977,72.64333,      -9.08942
758.494,72.69500,      -9.09035
759.011,72.74667,      -9.09129
759.526,72.79833,      -9.09243
760.041,72.85000,      -9.09337
760.557,72.90167,      -9.09431
761.073,72.95333,      -9.09494
761.591,73.00500,      -9.09578
762.108,73.05667,      -9.09622
762.624,73.10833,      -9.09675
763.141,73.16000,      -9.09729
763.661,73.21167,      -9.09763
764.174,73.26333,      -9.09816
764.689,73.31500,      -9.09910
765.206,73.36667,      -9.10014
765.719,73.41833,      -9.10077
766.239,73.47000,      -9.10181
766.754,73.52167,      -9.10244
767.271,73.57333,      -9.10348
767.785,73.62500,      -9.10431
768.301,73.67667,      -9.10475
768.813,73.72833,      -9.10519
769.333,73.78000,      -9.10542
769.851,73.83167,      -9.10565
770.368,73.88333,      -9.10568
770.889,73.93500,      -9.10581
771.406,73.98667,      -9.10615
771.924,74.03833,      -9.10678
772.44,74.09000,      -9.10742
772.956,74.14167,      -9.10825
773.472,74.19333,      -9.10868
773.987,74.24500,      -9.10892
774.503,74.29667,      -9.10925
775.022,74.34833,      -9.11008
775.537,74.40000,      -9.11091
776.051,74.45167,      -9.11184
776.569,74.50333,      -9.11257
777.084,74.55500,      -9.11311
777.604,74.60667,      -9.11364
778.118,74.65833,      -9.11427
778.632,74.71000,      -9.11490
779.149,74.76167,      -9.11593
779.665,74.81333,      -9.11696
780.181,74.86500,      -9.11759
780.696,74.91667,      -9.11812
781.216,74.96833,      -9.11844
781.735,75.02000,      -9.11897
782.249,75.07167,      -9.11930
782.766,75.12333,      -9.11943
783.283,75.17500,      -9.11956
783.803,75.22667,      -9.12018
784.323,75.27833,      -9.12091
784.839,75.33000,      -9.12194
785.353,75.38167,      -9.12277
785.866,75.43333,      -9.12360
786.385,75.48500,      -9.12432
786.899,75.53667,      -9.12475
787.417,75.58833,      -9.12518
787.937,75.64000,      -9.12600
788.456,75.69167,      -9.12712
788.972,75.74333,      -9.12805
789.488,75.79500,      -9.12877
790.005,75.84667,      -9.12920
790.524,75.89833,      -9.12952
791.042,75.95000,      -9.13025
791.559,76.00167,      -9.13067
792.076,76.05333,      -9.13130
792.59,76.10500,      -9.13192
793.11,76.15667,      -9.13244
793.632,76.20833,      -9.13296
794.146,76.26000,      -9.13388
794.66,76.31167,      -9.13461
795.178,76.36333,      -9.13583
795.692,76.41500,      -9.13675
796.212,76.46667,      -9.13717
796.728,76.51833,      -9.13779
797.241,76.57000,      -9.13852
797.76,76.62167,      -9.13944
798.277,76.67333,      -9.13986
798.792,76.72500,      -9.14028
799.309,76.77667,      -9.14090
799.523,76.79833,      -9.14132