File: data-raw/TGA/CC_TGA.csv
#EXPORTTYPE:                 ,DATA SINGLE
#FILE:                       ,CC.ngb-st9
#FORMAT:                     ,NETZSCH5
#FTYPE:                      ,ANSI
#IDENTITY:                   ,Saras
#DECIMAL:                    ,POINT
#SEPARATOR:                  ,COMMA
#MTYPE:                      ,TG
#INSTRUMENT:                 ,NETZSCH TG 209F1 Libra
#PROJECT:                    ,IL
#DATE/TIME:                  ,13/03/2017 12:15:15 PM (UTC+11)
#CORR. FILE:                 ,
#TEMPCAL:                    ,TCALZERO.TCX
#LABORATORY:                 ,Capture Lab
#OPERATOR:                   ,NJN
#REMARK:                     ,Training run
#SAMPLE:                     ,CC
#SAMPLE MASS /mg:            ,13.7182
#MATERIAL:                   ,KHCO3
#TYPE OF CRUCIBLE:           ,Al2O3
#SAMPLE CRUCIBLE MASS /mg:   ,311.7463
#REFERENCE CRUCIBLE MASS /mg:,
#M.RANGE /mg:                ,2000
#CORR. CODE:                 ,090
#RANGE:                      ,32°C/10.0(K/min)/800°C
#SEGMENT:                    ,S1/1
#SEG. 1:                     ,32°C/10.0(K/min)/800°C

##Temp./°C,Time/min,Mass loss/mg
 31.28800, 0.00000,-2.438551e-003
 31.29300, 0.05167,-6.117982e-003
 31.35400, 0.10333,-9.040491e-003
 31.68000, 0.15500,-8.984040e-003
 32.10100, 0.20667,-8.946767e-003
 32.47800, 0.25833,-1.096518e-002
 32.87200, 0.31000,-1.377222e-002
 33.31000, 0.36167,-1.691707e-002
 33.80100, 0.41333,-2.005309e-002
 34.31800, 0.46500,-2.382115e-002
 34.85900, 0.51667,-2.736406e-002
 35.43000, 0.56833,-3.149255e-002
 36.02500, 0.62000,-3.526160e-002
 36.64500, 0.67167,-3.944241e-002
 37.27700, 0.72333,-4.325211e-002
 37.92100, 0.77500,-4.765228e-002
 38.57700, 0.82667,-5.307918e-002
 39.24300, 0.87833,-5.794679e-002
 39.90900, 0.93000,-6.323422e-002
 40.57300, 0.98167,-6.850049e-002
 41.23200, 1.03333,-7.448648e-002
 41.89400, 1.08500,-8.058664e-002
 42.54500, 1.13667,-8.686929e-002
 43.19000, 1.18833,-9.344667e-002
 43.82100, 1.24000,-9.993411e-002
 44.44700, 1.29167,      -0.10726
 45.06600, 1.34333,      -0.11455
 45.66300, 1.39500,      -0.12205
 46.25500, 1.44667,      -0.12939
 46.84000, 1.49833,      -0.13735
 47.40300, 1.55000,      -0.14482
 47.96100, 1.60167,      -0.15326
 48.51100, 1.65333,      -0.16221
 49.05000, 1.70500,      -0.17096
 49.57700, 1.75667,      -0.17999
 50.09400, 1.80833,      -0.18853
 50.61600, 1.86000,      -0.19797
 51.12400, 1.91167,      -0.20647
 51.63000, 1.96333,      -0.21600
 52.13500, 2.01500,      -0.22505
 52.62700, 2.06667,      -0.23498
 53.12800, 2.11833,      -0.24537
 53.61900, 2.17000,      -0.25464
 54.11500, 2.22167,      -0.26486
 54.60700, 2.27333,      -0.27447
 55.10300, 2.32500,      -0.28470
 55.59300, 2.37667,      -0.29422
 56.08800, 2.42833,      -0.30436
 56.58800, 2.48000,      -0.31453
 57.08400, 2.53167,      -0.32518
 57.58900, 2.58333,      -0.33597
 58.08900, 2.63500,      -0.34621
 58.59200, 2.68667,      -0.35708
 59.09900, 2.73833,      -0.36745
 59.60600, 2.79000,      -0.37840
 60.11700, 2.84167,      -0.38877
 60.63000, 2.89333,      -0.39985
 61.14200, 2.94500,      -0.40988
 61.65500, 2.99667,      -0.42105
 62.17500, 3.04833,      -0.43183
 62.69600, 3.10000,      -0.44241
 63.21700, 3.15167,      -0.45335
 63.73600, 3.20333,      -0.46336
 64.25500, 3.25500,      -0.47431
 64.78100, 3.30667,      -0.48446
 65.30500, 3.35833,      -0.49540
 65.82800, 3.41000,      -0.50602
 66.34900, 3.46167,      -0.51584
 66.87400, 3.51333,      -0.52656
 67.39800, 3.56500,      -0.53659
 67.91900, 3.61667,      -0.54767
 68.44500, 3.66833,      -0.55752
 68.96700, 3.72000,      -0.56762
 69.48900, 3.77167,      -0.57692
 70.01000, 3.82333,      -0.58673
 70.53400, 3.87500,      -0.59644
 71.05200, 3.92667,      -0.60613
 71.57500, 3.97833,      -0.61614
 72.09300, 4.03000,      -0.62493
 72.61500, 4.08167,      -0.63404
 73.13300, 4.13333,      -0.64304
 73.64900, 4.18500,      -0.65222
 74.17100, 4.23667,      -0.66073
 74.68900, 4.28833,      -0.67004
 75.20600, 4.34000,      -0.67824
 75.72100, 4.39167,      -0.68672
 76.23900, 4.44333,      -0.69513
 76.76000, 4.49500,      -0.70324
 77.27800, 4.54667,      -0.71156
 77.79400, 4.59833,      -0.71915
 78.31100, 4.65000,      -0.72714
 78.82900, 4.70167,      -0.73464
 79.34900, 4.75333,      -0.74255
 79.86400, 4.80500,      -0.74954
 80.37800, 4.85667,      -0.75693
 80.89400, 4.90833,      -0.76402
 81.41100, 4.96000,      -0.77042
 81.92400, 5.01167,      -0.77761
 82.44000, 5.06333,      -0.78421
 82.95300, 5.11500,      -0.79099
 83.46900, 5.16667,      -0.79700
 83.98500, 5.21833,      -0.80360
 84.49800, 5.27000,      -0.80999
 85.01400, 5.32167,      -0.81649
 85.53500, 5.37333,      -0.82251
 86.05100, 5.42500,      -0.82840
 86.56700, 5.47667,      -0.83400
 87.08500, 5.52833,      -0.83970
 87.59900, 5.58000,      -0.84538
 88.11500, 5.63167,      -0.85068
 88.63500, 5.68333,      -0.85649
 89.15500, 5.73500,      -0.86149
 89.67000, 5.78667,      -0.86667
 90.18600, 5.83833,      -0.87216
 90.70700, 5.89000,      -0.87716
 91.22500, 5.94167,      -0.88245
 91.74300, 5.99333,      -0.88695
 92.26100, 6.04500,      -0.89185
 92.77700, 6.09667,      -0.89603
 93.29500, 6.14833,      -0.90092
 93.81500, 6.20000,      -0.90541
 94.32900, 6.25167,      -0.90990
 94.84700, 6.30333,      -0.91449
 95.36400, 6.35500,      -0.91878
 95.88000, 6.40667,      -0.92307
 96.39900, 6.45833,      -0.92687
 96.91400, 6.51000,      -0.93085
 97.43000, 6.56167,      -0.93455
 97.94500, 6.61333,      -0.93852
 98.46500, 6.66500,      -0.94234
 98.98200, 6.71667,      -0.94632
 99.49900, 6.76833,      -0.94992
100.017, 6.82000,      -0.95351
100.529, 6.87167,      -0.95741
101.048, 6.92333,      -0.96084
101.565, 6.97500,      -0.96435
102.081, 7.02667,      -0.96786
102.6, 7.07833,      -0.97148
103.113, 7.13000,      -0.97458
103.629, 7.18167,      -0.97758
104.147, 7.23333,      -0.98080
104.663, 7.28500,      -0.98380
105.181, 7.33667,      -0.98651
105.7, 7.38833,      -0.98941
106.214, 7.44000,      -0.99212
106.731, 7.49167,      -0.99502
107.248, 7.54333,      -0.99832
107.764, 7.59500,      -1.00131
108.279, 7.64667,      -1.00390
108.795, 7.69833,      -1.00630
109.307, 7.75000,      -1.00858
109.821, 7.80167,      -1.01137
110.34, 7.85333,      -1.01348
110.854, 7.90500,      -1.01607
111.371, 7.95667,      -1.01856
111.888, 8.00833,      -1.02105
112.402, 8.06000,      -1.02323
112.92, 8.11167,      -1.02552
113.435, 8.16333,      -1.02781
113.952, 8.21500,      -1.02980
114.468, 8.26667,      -1.03177
114.983, 8.31833,      -1.03375
115.5, 8.37000,      -1.03583
116.018, 8.42167,      -1.03812
116.535, 8.47333,      -1.04030
117.052, 8.52500,      -1.04238
117.569, 8.57667,      -1.04476
118.086, 8.62833,      -1.04713
118.604, 8.68000,      -1.04951
119.121, 8.73167,      -1.05149
119.636, 8.78333,      -1.05266
120.155, 8.83500,      -1.05374
120.669, 8.88667,      -1.05499
121.189, 8.93833,      -1.05647
121.703, 8.99000,      -1.05794
122.22, 9.04167,      -1.05951
122.735, 9.09333,      -1.06147
123.255, 9.14500,      -1.06384
123.77, 9.19667,      -1.06600
124.284, 9.24833,      -1.06786
124.799, 9.30000,      -1.07011
125.316, 9.35167,      -1.07218
125.834, 9.40333,      -1.07465
126.35, 9.45500,      -1.07671
126.868, 9.50667,      -1.07867
127.384, 9.55833,      -1.08073
127.9, 9.61000,      -1.08239
128.417, 9.66167,      -1.08385
128.931, 9.71333,      -1.08580
129.45, 9.76500,      -1.08806
129.965, 9.81667,      -1.09070
130.483, 9.86833,      -1.09317
130.999, 9.92000,      -1.09523
131.517, 9.97167,      -1.09728
132.03,10.02333,      -1.09952
132.549,10.07500,      -1.10168
133.068,10.12667,      -1.10413
133.583,10.17833,      -1.10648
134.098,10.23000,      -1.10882
134.616,10.28167,      -1.11147
135.133,10.33333,      -1.11432
135.651,10.38500,      -1.11697
136.168,10.43667,      -1.12012
136.684,10.48833,      -1.12316
137.203,10.54000,      -1.12611
137.722,10.59167,      -1.12946
138.234,10.64333,      -1.13269
138.755,10.69500,      -1.13614
139.27,10.74667,      -1.13958
139.786,10.79833,      -1.14293
140.302,10.85000,      -1.14677
140.822,10.90167,      -1.15061
141.34,10.95333,      -1.15466
141.852,11.00500,      -1.15808
142.372,11.05667,      -1.16203
142.889,11.10833,      -1.16586
143.403,11.16000,      -1.17030
143.924,11.21167,      -1.17435
144.439,11.26333,      -1.17918
144.953,11.31500,      -1.18430
145.471,11.36667,      -1.18915
145.987,11.41833,      -1.19448
146.507,11.47000,      -1.19943
147.025,11.52167,      -1.20446
147.54,11.57333,      -1.20949
148.055,11.62500,      -1.21492
148.572,11.67667,      -1.22045
149.091,11.72833,      -1.22609
149.609,11.78000,      -1.23173
150.122,11.83167,      -1.23725
150.638,11.88333,      -1.24308
151.153,11.93500,      -1.24861
151.671,11.98667,      -1.25456
152.189,12.03833,      -1.26049
152.708,12.09000,      -1.26682
153.226,12.14167,      -1.27255
153.742,12.19333,      -1.27878
154.259,12.24500,      -1.28521
154.777,12.29667,      -1.29134
155.291,12.34833,      -1.29776
155.81,12.40000,      -1.30350
156.321,12.45167,      -1.31022
156.839,12.50333,      -1.31625
157.357,12.55500,      -1.32278
157.875,12.60667,      -1.32871
158.391,12.65833,      -1.33544
158.906,12.71000,      -1.34156
159.424,12.76167,      -1.34799
159.94,12.81333,      -1.35482
160.457,12.86500,      -1.36085
160.976,12.91667,      -1.36717
161.494,12.96833,      -1.37340
162.01,13.02000,      -1.37983
162.529,13.07167,      -1.38576
163.042,13.12333,      -1.39228
163.562,13.17500,      -1.39891
164.079,13.22667,      -1.40524
164.592,13.27833,      -1.41155
165.111,13.33000,      -1.41799
165.63,13.38167,      -1.42461
166.147,13.43333,      -1.43104
166.663,13.48500,      -1.43786
167.179,13.53667,      -1.44429
167.694,13.58833,      -1.45071
168.209,13.64000,      -1.45724
168.729,13.69167,      -1.46367
169.24,13.74333,      -1.46999
169.761,13.79500,      -1.47592
170.273,13.84667,      -1.48244
170.79,13.89833,      -1.48867
171.309,13.95000,      -1.49550
171.824,14.00167,      -1.50162
172.343,14.05333,      -1.50845
172.856,14.10500,      -1.51538
173.374,14.15667,      -1.52151
173.89,14.20833,      -1.52833
174.407,14.26000,      -1.53466
174.923,14.31167,      -1.54148
175.437,14.36333,      -1.54771
175.956,14.41500,      -1.55484
176.471,14.46667,      -1.56127
176.986,14.51833,      -1.56839
177.505,14.57000,      -1.57572
178.019,14.62167,      -1.58235
178.537,14.67333,      -1.58908
179.054,14.72500,      -1.59541
179.573,14.77667,      -1.60244
180.088,14.82833,      -1.60897
180.604,14.88000,      -1.61589
181.121,14.93167,      -1.62262
181.637,14.98333,      -1.62985
182.156,15.03500,      -1.63729
182.671,15.08667,      -1.64402
183.19,15.13833,      -1.65115
183.71,15.19000,      -1.65748
184.228,15.24167,      -1.66451
184.745,15.29333,      -1.67124
185.261,15.34500,      -1.67867
185.779,15.39667,      -1.68530
186.294,15.44833,      -1.69243
186.812,15.50000,      -1.69967
187.332,15.55167,      -1.70640
187.847,15.60333,      -1.71383
188.364,15.65500,      -1.72077
188.882,15.70667,      -1.72820
189.398,15.75833,      -1.73503
189.916,15.81000,      -1.74207
190.432,15.86167,      -1.74910
190.948,15.91333,      -1.75683
191.465,15.96500,      -1.76427
191.977,16.01667,      -1.77130
192.496,16.06833,      -1.77875
193.011,16.12000,      -1.78579
193.53,16.17167,      -1.79333
194.046,16.22333,      -1.80046
194.563,16.27500,      -1.80790
195.08,16.32667,      -1.81484
195.597,16.37833,      -1.82248
196.114,16.43000,      -1.82993
196.634,16.48167,      -1.83717
197.15,16.53333,      -1.84481
197.668,16.58500,      -1.85205
198.185,16.63667,      -1.85979
198.701,16.68833,      -1.86694
199.219,16.74000,      -1.87418
199.732,16.79167,      -1.88132
200.248,16.84333,      -1.88887
200.764,16.89500,      -1.89652
201.279,16.94667,      -1.90346
201.796,16.99833,      -1.91111
202.312,17.05000,      -1.91785
202.824,17.10167,      -1.92560
203.343,17.15333,      -1.93305
203.861,17.20500,      -1.94049
204.377,17.25667,      -1.94794
204.894,17.30833,      -1.95609
205.409,17.36000,      -1.96443
205.925,17.41167,      -1.97188
206.444,17.46333,      -1.97963
206.958,17.51500,      -1.98708
207.476,17.56667,      -1.99453
207.989,17.61833,      -2.00177
208.506,17.67000,      -2.01012
209.019,17.72167,      -2.01797
209.54,17.77333,      -2.02642
210.056,17.82500,      -2.03477
210.575,17.87667,      -2.04252
211.092,17.92833,      -2.05097
211.609,17.98000,      -2.05861
212.128,18.03167,      -2.06717
212.643,18.08333,      -2.07511
213.162,18.13500,      -2.08416
213.678,18.18667,      -2.09321
214.197,18.23833,      -2.10206
214.714,18.29000,      -2.11141
215.23,18.34167,      -2.12036
215.745,18.39333,      -2.12991
216.262,18.44500,      -2.13886
216.78,18.49667,      -2.14871
217.295,18.54833,      -2.15805
217.813,18.60000,      -2.16801
218.327,18.65167,      -2.17795
218.845,18.70333,      -2.18841
219.361,18.75500,      -2.19866
219.88,18.80667,      -2.20891
220.395,18.85833,      -2.21986
220.912,18.91000,      -2.23031
221.429,18.96167,      -2.24146
221.946,19.01333,      -2.25231
222.462,19.06500,      -2.26406
222.979,19.11667,      -2.27501
223.496,19.16833,      -2.28706
224.011,19.22000,      -2.29911
224.527,19.27167,      -2.31066
225.045,19.32333,      -2.32331
225.562,19.37500,      -2.33536
226.08,19.42667,      -2.34892
226.597,19.47833,      -2.36127
227.114,19.53000,      -2.37472
227.63,19.58167,      -2.38737
228.148,19.63333,      -2.41502
228.665,19.68500,      -2.42467
229.182,19.73667,      -2.43512
229.701,19.78833,      -2.44768
230.217,19.84000,      -2.47063
230.732,19.89167,      -2.48088
231.25,19.94333,      -2.49193
231.768,19.99500,      -2.50648
232.283,20.04667,      -2.52713
232.799,20.09833,      -2.53908
233.315,20.15000,      -2.55224
233.833,20.20167,      -2.57769
234.346,20.25333,      -2.58794
234.861,20.30500,      -2.60159
235.376,20.35667,      -2.62664
235.894,20.40833,      -2.64350
236.41,20.46000,      -2.66195
236.924,20.51167,      -2.67780
237.442,20.56333,      -2.69535
237.962,20.61500,      -2.71281
238.477,20.66667,      -2.73016
238.994,20.71833,      -2.74851
239.513,20.77000,      -2.76606
240.026,20.82167,      -2.78511
240.544,20.87333,      -2.80267
241.058,20.92500,      -2.82282
241.574,20.97667,      -2.84207
242.094,21.02833,      -2.86272
242.609,21.08000,      -2.88227
243.124,21.13167,      -2.90073
243.643,21.18333,      -2.92078
244.162,21.23500,      -2.94023
244.679,21.28667,      -2.96179
245.195,21.33833,      -2.98204
245.713,21.39000,      -3.00339
246.229,21.44167,      -3.02344
246.747,21.49333,      -3.04559
247.261,21.54500,      -3.06894
247.779,21.59667,      -3.09040
248.293,21.64833,      -3.11235
248.809,21.70000,      -3.13390
249.326,21.75167,      -3.15675
249.844,21.80333,      -3.17800
250.356,21.85500,      -3.19996
250.874,21.90667,      -3.22111
251.392,21.95833,      -3.24396
251.906,22.01000,      -3.26661
252.422,22.06167,      -3.28696
252.939,22.11333,      -3.30972
253.45,22.16500,      -3.33097
253.969,22.21667,      -3.35372
254.484,22.26833,      -3.37477
254.996,22.32000,      -3.39702
255.513,22.37167,      -3.41708
256.031,22.42333,      -3.43843
256.546,22.47500,      -3.45918
257.061,22.52667,      -3.47863
257.578,22.57833,      -3.49908
258.092,22.63000,      -3.51883
258.609,22.68167,      -3.53948
259.123,22.73333,      -3.55844
259.64,22.78500,      -3.57809
260.158,22.83667,      -3.59634
260.677,22.88833,      -3.61559
261.193,22.94000,      -3.63464
261.712,22.99167,      -3.65259
262.231,23.04333,      -3.67134
262.748,23.09500,      -3.68899
263.263,23.14667,      -3.70754
263.779,23.19833,      -3.72489
264.296,23.25000,      -3.74395
264.81,23.30167,      -3.76140
265.329,23.35333,      -3.77865
265.846,23.40500,      -3.79630
266.363,23.45667,      -3.81265
266.879,23.50833,      -3.83040
267.395,23.56000,      -3.84695
267.911,23.61167,      -3.86500
268.428,23.66333,      -3.87545
268.946,23.71500,      -3.89250
269.466,23.76667,      -3.90915
269.98,23.81833,      -3.92840
270.496,23.87000,      -3.94924
271.01,23.92167,      -3.96549
271.524,23.97333,      -3.98044
272.038,24.02500,      -3.99169
272.556,24.07667,      -4.01704
273.071,24.12833,      -4.02889
273.589,24.18000,      -4.05094
274.108,24.23167,      -4.06789
274.625,24.28333,      -4.08584
275.141,24.33500,      -4.10108
275.654,24.38667,      -4.11263
276.17,24.43833,      -4.13818
276.688,24.49000,      -4.15493
277.209,24.54167,      -4.17268
277.726,24.59333,      -4.18953
278.243,24.64500,      -4.20827
278.757,24.69667,      -4.22722
279.271,24.74833,      -4.24527
279.788,24.80000,      -4.26461
280.304,24.85167,      -4.28166
280.819,24.90333,      -4.30081
281.337,24.95500,      -4.31906
281.858,25.00667,      -4.33790
282.376,25.05833,      -4.35695
282.891,25.11000,      -4.37759
283.408,25.16167,      -4.39824
283.921,25.21333,      -4.41729
284.438,25.26500,      -4.43793
284.955,25.31667,      -4.45738
285.47,25.36833,      -4.47852
285.991,25.42000,      -4.49897
286.506,25.47167,      -4.52121
287.018,25.52333,      -4.54196
287.535,25.57500,      -4.56410
288.05,25.62667,      -4.58705
288.568,25.67833,      -4.60889
289.087,25.73000,      -4.63174
289.603,25.78167,      -4.65318
290.117,25.83333,      -4.67663
290.637,25.88500,      -4.69907
291.154,25.93667,      -4.72411
291.67,25.98833,      -4.74766
292.189,26.04000,      -4.77330
292.708,26.09167,      -4.79904
293.236,26.14333,      -4.82348
293.755,26.19500,      -4.84913
294.273,26.24667,      -4.87437
294.787,26.29833,      -4.90151
295.299,26.35000,      -4.92745
295.823,26.40167,      -4.95489
296.339,26.45333,      -4.98134
296.852,26.50500,      -5.00978
297.364,26.55667,      -5.03672
297.881,26.60833,      -5.06576
298.392,26.66000,      -5.09560
298.906,26.71167,      -5.12414
299.421,26.76333,      -5.15528
299.937,26.81500,      -5.18372
300.453,26.86667,      -5.21536
300.968,26.91833,      -5.24500
301.484,26.97000,      -5.27754
301.999,27.02167,      -5.31048
302.511,27.07333,      -5.34213
303.03,27.12500,      -5.37586
303.545,27.17667,      -5.40800
304.063,27.22833,      -5.44254
304.583,27.28000,      -5.47518
305.101,27.33167,      -5.51032
305.616,27.38333,      -5.54406
306.134,27.43500,      -5.57890
306.647,27.48667,      -5.61515
307.165,27.53833,      -5.64909
307.681,27.59000,      -5.68503
308.198,27.64167,      -5.71977
308.716,27.69333,      -5.75591
309.229,27.74500,      -5.79035
309.748,27.79667,      -5.82679
310.262,27.84833,      -5.86023
310.777,27.90000,      -5.89547
311.296,27.95167,      -5.93091
311.813,28.00333,      -5.96365
312.329,28.05500,      -5.99829
312.846,28.10667,      -6.03003
313.363,28.15833,      -6.06307
313.879,28.21000,      -6.09331
314.394,28.26167,      -6.12585
314.911,28.31333,      -6.15489
315.428,28.36500,      -6.18473
315.944,28.41667,      -6.21387
316.46,28.46833,      -6.24071
316.974,28.52000,      -6.26855
317.494,28.57167,      -6.29389
318.007,28.62333,      -6.32013
318.525,28.67500,      -6.34437
319.042,28.72667,      -6.36881
319.559,28.77833,      -6.39245
320.073,28.83000,      -6.41409
320.589,28.88167,      -6.43633
321.105,28.93333,      -6.45647
321.622,28.98500,      -6.47701
322.139,29.03667,      -6.49655
322.654,29.08833,      -6.51629
323.168,29.14000,      -6.53423
323.687,29.19167,      -6.55247
324.203,29.24333,      -6.56991
324.717,29.29500,      -6.58755
325.234,29.34667,      -6.60449
325.747,29.39833,      -6.61423
326.264,29.45000,      -6.62657
326.783,29.50167,      -6.64490
327.299,29.55333,      -6.66204
327.812,29.60500,      -6.67248
328.331,29.65667,      -6.68512
328.848,29.70833,      -6.70806
329.364,29.76000,      -6.71770
329.881,29.81167,      -6.72854
330.396,29.86333,      -6.73898
330.915,29.91500,      -6.75102
331.432,29.96667,      -6.76256
331.949,30.01833,      -6.77520
332.467,30.07000,      -6.78673
332.985,30.12167,      -6.79887
333.501,30.17333,      -6.81051
334.015,30.22500,      -6.82315
334.53,30.27667,      -6.83589
335.048,30.32833,      -6.84693
335.565,30.38000,      -6.85897
336.08,30.43167,      -6.86931
336.599,30.48333,      -6.88044
337.115,30.53500,      -6.89088
337.627,30.58667,      -6.90182
338.146,30.63833,      -6.91206
338.659,30.69000,      -6.92260
339.176,30.74167,      -6.93284
339.697,30.79333,      -6.94357
340.214,30.84500,      -6.95471
340.731,30.89667,      -6.96475
341.249,30.94833,      -6.97479
341.767,31.00000,      -6.98462
342.282,31.05167,      -6.99496
342.8,31.10333,      -7.00470
343.316,31.15500,      -7.01514
343.834,31.20667,      -7.02497
344.349,31.25833,      -7.03441
344.866,31.31000,      -7.04415
345.381,31.36167,      -7.05339
345.899,31.41333,      -7.06322
346.415,31.46500,      -7.07246
346.931,31.51667,      -7.08210
347.448,31.56833,      -7.09103
347.967,31.62000,      -7.10087
348.481,31.67167,      -7.10991
348.999,31.72333,      -7.11834
349.516,31.77500,      -7.12768
350.029,31.82667,      -7.13632
350.544,31.87833,      -7.14646
351.051,31.93000,      -7.15590
351.567,31.98167,      -7.16583
352.084,32.03333,      -7.17446
352.603,32.08500,      -7.18270
353.122,32.13667,      -7.19223
353.638,32.18833,      -7.20137
354.156,32.24000,      -7.21100
354.673,32.29167,      -7.21974
355.19,32.34333,      -7.22897
355.705,32.39500,      -7.23801
356.22,32.44667,      -7.24705
356.737,32.49833,      -7.25578
357.253,32.55000,      -7.26492
357.77,32.60167,      -7.27355
358.285,32.65333,      -7.28198
358.805,32.70500,      -7.29042
359.322,32.75667,      -7.29905
359.838,32.80833,      -7.30859
360.353,32.86000,      -7.31742
360.87,32.91167,      -7.32666
361.384,32.96333,      -7.33459
361.901,33.01500,      -7.34362
362.415,33.06667,      -7.35256
362.933,33.11833,      -7.36069
363.449,33.17000,      -7.37012
363.964,33.22167,      -7.37856
364.482,33.27333,      -7.38779
364.996,33.32500,      -7.39632
365.515,33.37667,      -7.40435
366.031,33.42833,      -7.41159
366.55,33.48000,      -7.41992
367.065,33.53167,      -7.42895
367.579,33.58333,      -7.43809
368.094,33.63500,      -7.44782
368.61,33.68667,      -7.45615
369.131,33.73833,      -7.46418
369.646,33.79000,      -7.47221
370.163,33.84167,      -7.48074
370.681,33.89333,      -7.48857
371.2,33.94500,      -7.49730
371.714,33.99667,      -7.50574
372.23,34.04833,      -7.51467
372.745,34.10000,      -7.52340
373.262,34.15167,      -7.53163
373.779,34.20333,      -7.53996
374.296,34.25500,      -7.54769
374.813,34.30667,      -7.55662
375.328,34.35833,      -7.56475
375.845,34.41000,      -7.57368
376.362,34.46167,      -7.58231
376.878,34.51333,      -7.59074
377.392,34.56500,      -7.59997
377.907,34.61667,      -7.60800
378.425,34.66833,      -7.61682
378.943,34.72000,      -7.62485
379.46,34.77167,      -7.63378
379.975,34.82333,      -7.64191
380.495,34.87500,      -7.64973
381.013,34.92667,      -7.65766
381.529,34.97833,      -7.66589
382.044,35.03000,      -7.67492
382.563,35.08167,      -7.68385
383.078,35.13333,      -7.69178
383.59,35.18500,      -7.69941
384.11,35.23667,      -7.70753
384.625,35.28833,      -7.71526
385.141,35.34000,      -7.72368
385.654,35.39167,      -7.73201
386.176,35.44333,      -7.74054
386.688,35.49500,      -7.74976
387.204,35.54667,      -7.75779
387.719,35.59833,      -7.76602
388.234,35.65000,      -7.77394
388.753,35.70167,      -7.78207
389.267,35.75333,      -7.78989
389.784,35.80500,      -7.79721
390.303,35.85667,      -7.80514
390.819,35.90833,      -7.81286
391.333,35.96000,      -7.82119
391.848,36.01167,      -7.82871
392.363,36.06333,      -7.83714
392.876,36.11500,      -7.84536
393.392,36.16667,      -7.85379
393.911,36.21833,      -7.86161
394.427,36.27000,      -7.87013
394.942,36.32167,      -7.87845
395.459,36.37333,      -7.88537
395.976,36.42500,      -7.89280
396.494,36.47667,      -7.90032
397.01,36.52833,      -7.90884
397.525,36.58000,      -7.91706
398.042,36.63167,      -7.92528
398.558,36.68333,      -7.93240
399.075,36.73500,      -7.94032
399.592,36.78667,      -7.94795
400.107,36.83833,      -7.95567
400.624,36.89000,      -7.96269
401.142,36.94167,      -7.96951
401.654,36.99333,      -7.97713
402.172,37.04500,      -7.98485
402.688,37.09667,      -7.99257
403.202,37.14833,      -7.99919
403.718,37.20000,      -8.00671
404.238,37.25167,      -8.01463
404.75,37.30333,      -8.02255
405.268,37.35500,      -8.03117
405.78,37.40667,      -8.03859
406.296,37.45833,      -8.04651
406.81,37.51000,      -8.05392
407.33,37.56167,      -8.06174
407.849,37.61333,      -8.06906
408.369,37.66500,      -8.07667
408.885,37.71667,      -8.08399
409.408,37.76833,      -8.09051
409.924,37.82000,      -8.09723
410.441,37.87167,      -8.10425
410.957,37.92333,      -8.11176
411.472,37.97500,      -8.11918
411.991,38.02667,      -8.12690
412.505,38.07833,      -8.13382
413.022,38.13000,      -8.14134
413.537,38.18167,      -8.14916
414.051,38.23333,      -8.15617
414.567,38.28500,      -8.16339
415.086,38.33667,      -8.17061
415.601,38.38833,      -8.17782
416.119,38.44000,      -8.18444
416.634,38.49167,      -8.19166
417.15,38.54333,      -8.19897
417.669,38.59500,      -8.20609
418.187,38.64667,      -8.21350
418.7,38.69833,      -8.22052
419.218,38.75000,      -8.22733
419.733,38.80167,      -8.23375
420.251,38.85333,      -8.24117
420.764,38.90500,      -8.24809
421.282,38.95667,      -8.25560
421.797,39.00833,      -8.26302
422.309,39.06000,      -8.26943
422.826,39.11167,      -8.27655
423.34,39.16333,      -8.28296
423.858,39.21500,      -8.29018
424.376,39.26667,      -8.29699
424.892,39.31833,      -8.30370
425.41,39.37000,      -8.31031
425.929,39.42167,      -8.31733
426.446,39.47333,      -8.32494
426.963,39.52500,      -8.33196
427.481,39.57667,      -8.33887
427.999,39.62833,      -8.34538
428.513,39.68000,      -8.35190
429.029,39.73167,      -8.35822
429.543,39.78333,      -8.36543
430.061,39.83500,      -8.37194
430.576,39.88667,      -8.37855
431.09,39.93833,      -8.38497
431.606,39.99000,      -8.39328
432.127,40.04167,      -8.40029
432.638,40.09333,      -8.40651
433.154,40.14500,      -8.41342
433.674,40.19667,      -8.41933
434.191,40.24833,      -8.42564
434.707,40.30000,      -8.43125
435.224,40.35167,      -8.43756
435.742,40.40333,      -8.44338
436.258,40.45500,      -8.44949
436.774,40.50667,      -8.45630
437.291,40.55833,      -8.46241
437.806,40.61000,      -8.46923
438.322,40.66167,      -8.47514
438.837,40.71333,      -8.48195
439.355,40.76500,      -8.48846
439.868,40.81667,      -8.49477
440.385,40.86833,      -8.50038
440.901,40.92000,      -8.50659
441.418,40.97167,      -8.51290
441.931,41.02333,      -8.51882
442.448,41.07500,      -8.52523
442.963,41.12667,      -8.53124
443.48,41.17833,      -8.53755
443.998,41.23000,      -8.54305
444.514,41.28167,      -8.54906
445.033,41.33333,      -8.55437
445.55,41.38500,      -8.56018
446.065,41.43667,      -8.56579
446.58,41.48833,      -8.57130
447.096,41.54000,      -8.57751
447.613,41.59167,      -8.58292
448.125,41.64333,      -8.58873
448.644,41.69500,      -8.59434
449.157,41.74667,      -8.60035
449.673,41.79833,      -8.60676
450.192,41.85000,      -8.61206
450.708,41.90167,      -8.61727
451.226,41.95333,      -8.62228
451.744,42.00500,      -8.62739
452.262,42.05667,      -8.63269
452.779,42.10833,      -8.63770
453.294,42.16000,      -8.64261
453.81,42.21167,      -8.64722
454.325,42.26333,      -8.65243
454.843,42.31500,      -8.65824
455.359,42.36667,      -8.66304
455.876,42.41833,      -8.66795
456.392,42.47000,      -8.67356
456.905,42.52167,      -8.67897
457.423,42.57333,      -8.68457
457.941,42.62500,      -8.68948
458.458,42.67667,      -8.69468
458.973,42.72833,      -8.69909
459.49,42.78000,      -8.70299
460.008,42.83167,      -8.70740
460.524,42.88333,      -8.71161
461.042,42.93500,      -8.71691
461.557,42.98667,      -8.72142
462.072,43.03833,      -8.72683
462.587,43.09000,      -8.73213
463.102,43.14167,      -8.73674
463.619,43.19333,      -8.74154
464.136,43.24500,      -8.74545
464.655,43.29667,      -8.74955
465.171,43.34833,      -8.75396
465.687,43.40000,      -8.75856
466.204,43.45167,      -8.76277
466.721,43.50333,      -8.76707
467.238,43.55500,      -8.77127
467.755,43.60667,      -8.77588
468.274,43.65833,      -8.78038
468.786,43.71000,      -8.78449
469.305,43.76167,      -8.78819
469.819,43.81333,      -8.79190
470.337,43.86500,      -8.79580
470.853,43.91667,      -8.79990
471.368,43.96833,      -8.80411
471.888,44.02000,      -8.80761
472.402,44.07167,      -8.81111
472.92,44.12333,      -8.81491
473.436,44.17500,      -8.81872
473.954,44.22667,      -8.82232
474.468,44.27833,      -8.82603
474.985,44.33000,      -8.83003
475.499,44.38167,      -8.83383
476.014,44.43333,      -8.83763
476.532,44.48500,      -8.84124
477.048,44.53667,      -8.84554
477.563,44.58833,      -8.84994
478.08,44.64000,      -8.85374
478.593,44.69167,      -8.85694
479.112,44.74333,      -8.85985
479.627,44.79500,      -8.86345
480.142,44.84667,      -8.86655
480.656,44.89833,      -8.86975
481.173,44.95000,      -8.87265
481.69,45.00167,      -8.87605
482.202,45.05333,      -8.87946
482.719,45.10500,      -8.88256
483.233,45.15667,      -8.88596
483.75,45.20833,      -8.88966
484.264,45.26000,      -8.89336
484.781,45.31167,      -8.89666
485.298,45.36333,      -8.89956
485.812,45.41500,      -8.90276
486.33,45.46667,      -8.90616
486.846,45.51833,      -8.90906
487.361,45.57000,      -8.91246
487.879,45.62167,      -8.91606
488.394,45.67333,      -8.91886
488.911,45.72500,      -8.92116
489.427,45.77667,      -8.92366
489.942,45.82833,      -8.92676
490.459,45.88000,      -8.92905
490.974,45.93167,      -8.93085
491.493,45.98333,      -8.93335
492.009,46.03500,      -8.93575
492.528,46.08667,      -8.93895
493.039,46.13833,      -8.94185
493.558,46.19000,      -8.94475
494.075,46.24167,      -8.94724
494.591,46.29333,      -8.94964
495.108,46.34500,      -8.95174
495.625,46.39667,      -8.95434
496.143,46.44833,      -8.95703
496.656,46.50000,      -8.95963
497.175,46.55167,      -8.96223
497.69,46.60333,      -8.96513
498.208,46.65500,      -8.96762
498.726,46.70667,      -8.96972
499.242,46.75833,      -8.97161
499.759,46.81000,      -8.97331
500.278,46.86167,      -8.97611
500.791,46.91333,      -8.97931
501.306,46.96500,      -8.98191
501.82,47.01667,      -8.98470
502.333,47.06833,      -8.98700
502.849,47.12000,      -8.98950
503.365,47.17167,      -8.99149
503.881,47.22333,      -8.99319
504.398,47.27500,      -8.99428
504.916,47.32667,      -8.99628
505.432,47.37833,      -8.99887
505.947,47.43000,      -9.00187
506.466,47.48167,      -9.00466
506.981,47.53333,      -9.00736
507.499,47.58500,      -9.00956
508.016,47.63667,      -9.01145
508.529,47.68833,      -9.01385
509.047,47.74000,      -9.01614
509.566,47.79167,      -9.01834
510.078,47.84333,      -9.02054
510.591,47.89500,      -9.02243
511.109,47.94667,      -9.02453
511.625,47.99833,      -9.02592
512.142,48.05000,      -9.02752
512.658,48.10167,      -9.02891
513.171,48.15333,      -9.03061
513.684,48.20500,      -9.03250
514.202,48.25667,      -9.03470
514.717,48.30833,      -9.03659
515.235,48.36000,      -9.03858
515.752,48.41167,      -9.04058
516.27,48.46333,      -9.04277
516.786,48.51500,      -9.04477
517.302,48.56667,      -9.04656
517.819,48.61833,      -9.04805
518.335,48.67000,      -9.05055
518.851,48.72167,      -9.05344
519.365,48.77333,      -9.05614
519.882,48.82500,      -9.05793
520.395,48.87667,      -9.06003
520.91,48.92833,      -9.06242
521.429,48.98000,      -9.06471
521.944,49.03167,      -9.06670
522.46,49.08333,      -9.06820
522.979,49.13500,      -9.06909
523.494,49.18667,      -9.06988
524.01,49.23833,      -9.07108
524.527,49.29000,      -9.07177
525.043,49.34167,      -9.07336
525.562,49.39333,      -9.07475
526.076,49.44500,      -9.07595
526.594,49.49667,      -9.07714
527.11,49.54833,      -9.07903
527.627,49.60000,      -9.08132
528.144,49.65167,      -9.08381
528.661,49.70333,      -9.08641
529.173,49.75500,      -9.08870
529.689,49.80667,      -9.09049
530.206,49.85833,      -9.09148
530.721,49.91000,      -9.09277
531.237,49.96167,      -9.09406
531.755,50.01333,      -9.09516
532.269,50.06500,      -9.09645
532.787,50.11667,      -9.09774
533.3,50.16833,      -9.09913
533.817,50.22000,      -9.10062
534.332,50.27167,      -9.10201
534.851,50.32333,      -9.10340
535.368,50.37500,      -9.10469
535.883,50.42667,      -9.10578
536.403,50.47833,      -9.10727
536.919,50.53000,      -9.10886
537.435,50.58167,      -9.11125
537.954,50.63333,      -9.11394
538.47,50.68500,      -9.11623
538.986,50.73667,      -9.11752
539.502,50.78833,      -9.11851
540.017,50.84000,      -9.11990
540.532,50.89167,      -9.12129
541.049,50.94333,      -9.12268
541.562,50.99500,      -9.12397
542.079,51.04667,      -9.12546
542.595,51.09833,      -9.12675
543.11,51.15000,      -9.12784
543.628,51.20167,      -9.12903
544.145,51.25333,      -9.12991
544.662,51.30500,      -9.13090
545.178,51.35667,      -9.13209
545.698,51.40833,      -9.13277
546.218,51.46000,      -9.13346
546.735,51.51167,      -9.13485
547.247,51.56333,      -9.13614
547.765,51.61500,      -9.13713
548.28,51.66667,      -9.13852
548.791,51.71833,      -9.14061
549.308,51.77000,      -9.14340
549.821,51.82167,      -9.14538
550.337,51.87333,      -9.14647
550.857,51.92500,      -9.14745
551.373,51.97667,      -9.14854
551.887,52.02833,      -9.14973
552.407,52.08000,      -9.15101
552.923,52.13167,      -9.15220
553.442,52.18333,      -9.15308
553.959,52.23500,      -9.15387
554.472,52.28667,      -9.15516
554.99,52.33833,      -9.15644
555.506,52.39000,      -9.15793
556.021,52.44167,      -9.15932
556.536,52.49333,      -9.16070
557.052,52.54500,      -9.16209
557.567,52.59667,      -9.16357
558.086,52.64833,      -9.16525
558.603,52.70000,      -9.16724
559.118,52.75167,      -9.16862
559.638,52.80333,      -9.16911
560.154,52.85500,      -9.16939
560.669,52.90667,      -9.16988
561.186,52.95833,      -9.17066
561.702,53.01000,      -9.17154
562.218,53.06167,      -9.17283
562.734,53.11333,      -9.17431
563.249,53.16500,      -9.17640
563.764,53.21667,      -9.17848
564.279,53.26833,      -9.17957
564.795,53.32000,      -9.18035
565.308,53.37167,      -9.18144
565.823,53.42333,      -9.18272
566.337,53.47500,      -9.18390
566.858,53.52667,      -9.18548
567.374,53.57833,      -9.18666
567.891,53.63000,      -9.18764
568.41,53.68167,      -9.18862
568.927,53.73333,      -9.18931
569.442,53.78500,      -9.18979
569.958,53.83667,      -9.19037
570.474,53.88833,      -9.19115
570.992,53.94000,      -9.19203
571.505,53.99167,      -9.19372
572.024,54.04333,      -9.19610
572.536,54.09500,      -9.19958
573.053,54.14667,      -9.20186
573.571,54.19833,      -9.20294
574.09,54.25000,      -9.20372
574.605,54.30167,      -9.20460
575.121,54.35333,      -9.20468
575.642,54.40500,      -9.20475
576.154,54.45667,      -9.20544
576.671,54.50833,      -9.20632
577.19,54.56000,      -9.20709
577.708,54.61167,      -9.20797
578.223,54.66333,      -9.20925
578.741,54.71500,      -9.21013
579.258,54.76667,      -9.21171
579.774,54.81833,      -9.21329
580.295,54.87000,      -9.21446
580.809,54.92167,      -9.21554
581.328,54.97333,      -9.21652
581.841,55.02500,      -9.21780
582.358,55.07667,      -9.21918
582.875,55.12833,      -9.22066
583.389,55.18000,      -9.22174
583.909,55.23167,      -9.22251
584.426,55.28333,      -9.22329
584.944,55.33500,      -9.22406
585.461,55.38667,      -9.22494
585.976,55.43833,      -9.22632
586.491,55.49000,      -9.22749
587.009,55.54167,      -9.22857
587.525,55.59333,      -9.22965
588.039,55.64500,      -9.23092
588.558,55.69667,      -9.23230
589.077,55.74833,      -9.23387
589.595,55.80000,      -9.23564
590.112,55.85167,      -9.23692
590.632,55.90333,      -9.23779
591.15,55.95500,      -9.23877
591.666,56.00667,      -9.23954
592.184,56.05833,      -9.24032
592.701,56.11000,      -9.24079
593.217,56.16167,      -9.24117
593.735,56.21333,      -9.24174
594.25,56.26500,      -9.24262
594.768,56.31667,      -9.24399
595.281,56.36833,      -9.24526
595.801,56.42000,      -9.24653
596.317,56.47167,      -9.24791
596.837,56.52333,      -9.24937
597.352,56.57500,      -9.25085
597.87,56.62667,      -9.25252
598.387,56.67833,      -9.25429
598.904,56.73000,      -9.25567
599.421,56.78167,      -9.25684
599.938,56.83333,      -9.25771
600.454,56.88500,      -9.25858
600.968,56.93667,      -9.25926
601.485,56.98833,      -9.25983
602.001,57.04000,      -9.26050
602.517,57.09167,      -9.26097
603.034,57.14333,      -9.26174
603.548,57.19500,      -9.26271
604.064,57.24667,      -9.26388
604.583,57.29833,      -9.26495
605.101,57.35000,      -9.26592
605.616,57.40167,      -9.26669
606.133,57.45333,      -9.26706
606.655,57.50500,      -9.26752
607.171,57.55667,      -9.26829
607.688,57.60833,      -9.26946
608.204,57.66000,      -9.27063
608.72,57.71167,      -9.27230
609.232,57.76333,      -9.27457
609.745,57.81500,      -9.27564
610.263,57.86667,      -9.27641
610.779,57.91833,      -9.27688
611.297,57.97000,      -9.27804
611.813,58.02167,      -9.27941
612.329,58.07333,      -9.28188
612.85,58.12500,      -9.28364
613.365,58.17667,      -9.28521
613.881,58.22833,      -9.28668
614.396,58.28000,      -9.28755
614.913,58.33167,      -9.28781
615.427,58.38333,      -9.28828
615.947,58.43500,      -9.28914
616.463,58.48667,      -9.29021
616.979,58.53833,      -9.29128
617.496,58.59000,      -9.29174
618.013,58.64167,      -9.29251
618.525,58.69333,      -9.29298
619.044,58.74500,      -9.29354
619.557,58.79667,      -9.29410
620.075,58.84833,      -9.29507
620.592,58.90000,      -9.29633
621.11,58.95167,      -9.29730
621.626,59.00333,      -9.29906
622.142,59.05500,      -9.30033
622.658,59.10667,      -9.30139
623.173,59.15833,      -9.30246
623.688,59.21000,      -9.30352
624.203,59.26167,      -9.30439
624.72,59.31333,      -9.30565
625.237,59.36500,      -9.30651
625.754,59.41667,      -9.30727
626.269,59.46833,      -9.30824
626.782,59.52000,      -9.30930
627.299,59.57167,      -9.31037
627.817,59.62333,      -9.31103
628.334,59.67500,      -9.31189
628.851,59.72667,      -9.31295
629.372,59.77833,      -9.31391
629.889,59.83000,      -9.31517
630.404,59.88167,      -9.31633
630.925,59.93333,      -9.31749
631.441,59.98500,      -9.31836
631.957,60.03667,      -9.31962
632.473,60.08833,      -9.32048
632.988,60.14000,      -9.32144
633.504,60.19167,      -9.32240
634.022,60.24333,      -9.32336
634.537,60.29500,      -9.32423
635.056,60.34667,      -9.32498
635.573,60.39833,      -9.32564
636.09,60.45000,      -9.32621
636.603,60.50167,      -9.32697
637.119,60.55333,      -9.32773
637.637,60.60500,      -9.32829
638.152,60.65667,      -9.32915
638.665,60.70833,      -9.32991
639.182,60.76000,      -9.33087
639.699,60.81167,      -9.33203
640.213,60.86333,      -9.33319
640.73,60.91500,      -9.33435
641.245,60.96667,      -9.33540
641.763,61.01833,      -9.33626
642.278,61.07000,      -9.33762
642.796,61.12167,      -9.33898
643.313,61.17333,      -9.34024
643.826,61.22500,      -9.34160
644.344,61.27667,      -9.34256
644.861,61.32833,      -9.34321
645.378,61.38000,      -9.34377
645.893,61.43167,      -9.34453
646.406,61.48333,      -9.34529
646.924,61.53500,      -9.34615
647.442,61.58667,      -9.34690
647.956,61.63833,      -9.34756
648.475,61.69000,      -9.34872
648.989,61.74167,      -9.34998
649.504,61.79333,      -9.35113
650.022,61.84500,      -9.35199
650.539,61.89667,      -9.35304
651.055,61.94833,      -9.35370
651.566,62.00000,      -9.35476
652.085,62.05167,      -9.35592
652.601,62.10333,      -9.35717
653.118,62.15500,      -9.35863
653.635,62.20667,      -9.36048
654.149,62.25833,      -9.36264
654.666,62.31000,      -9.36390
655.185,62.36167,      -9.36445
655.702,62.41333,      -9.36440
656.22,62.46500,      -9.36456
656.739,62.51667,      -9.36461
657.254,62.56833,      -9.36487
657.773,62.62000,      -9.36532
658.288,62.67167,      -9.36618
658.805,62.72333,      -9.36733
659.321,62.77500,      -9.36859
659.836,62.82667,      -9.36995
660.352,62.87833,      -9.37110
660.869,62.93000,      -9.37235
661.383,62.98167,      -9.37381
661.898,63.03333,      -9.37537
662.413,63.08500,      -9.37652
662.93,63.13667,      -9.37777
663.444,63.18833,      -9.37943
663.962,63.24000,      -9.38048
664.481,63.29167,      -9.38163
664.997,63.34333,      -9.38228
665.517,63.39500,      -9.38304
666.033,63.44667,      -9.38399
666.551,63.49833,      -9.38484
667.069,63.55000,      -9.38569
667.588,63.60167,      -9.38645
668.1,63.65333,      -9.38741
668.617,63.70500,      -9.38846
669.133,63.75667,      -9.38941
669.646,63.80833,      -9.39027
670.162,63.86000,      -9.39122
670.677,63.91167,      -9.39247
671.196,63.96333,      -9.39372
671.712,64.01500,      -9.39507
672.231,64.06667,      -9.39572
672.75,64.11833,      -9.39607
673.266,64.17000,      -9.39643
673.783,64.22167,      -9.39728
674.3,64.27333,      -9.39843
674.816,64.32500,      -9.39968
675.33,64.37667,      -9.40064
675.845,64.42833,      -9.40199
676.362,64.48000,      -9.40294
676.879,64.53167,      -9.40409
677.397,64.58333,      -9.40514
677.915,64.63500,      -9.40649
678.434,64.68667,      -9.40764
678.951,64.73833,      -9.40869
679.466,64.79000,      -9.40944
679.984,64.84167,      -9.41019
680.503,64.89333,      -9.41074
681.017,64.94500,      -9.41149
681.537,64.99667,      -9.41224
682.052,65.04833,      -9.41289
682.569,65.10000,      -9.41394
683.086,65.15167,      -9.41529
683.599,65.20333,      -9.41695
684.112,65.25500,      -9.41860
684.627,65.30667,      -9.41955
685.146,65.35833,      -9.41990
685.658,65.41000,      -9.42005
686.177,65.46167,      -9.42020
686.698,65.51333,      -9.42084
687.214,65.56500,      -9.42129
687.733,65.61667,      -9.42224
688.249,65.66833,      -9.42329
688.767,65.72000,      -9.42464
689.283,65.77167,      -9.42599
689.799,65.82333,      -9.42734
690.315,65.87500,      -9.42889
690.832,65.92667,      -9.43034
691.348,65.97833,      -9.43149
691.863,66.03000,      -9.43234
692.379,66.08167,      -9.43309
692.892,66.13333,      -9.43374
693.41,66.18500,      -9.43479
693.924,66.23667,      -9.43543
694.44,66.28833,      -9.43628
694.96,66.34000,      -9.43733
695.476,66.39167,      -9.43828
695.995,66.44333,      -9.43932
696.517,66.49500,      -9.44017
697.036,66.54667,      -9.44102
697.55,66.59833,      -9.44206
698.069,66.65000,      -9.44301
698.584,66.70167,      -9.44396
699.1,66.75333,      -9.44481
699.615,66.80500,      -9.44576
700.131,66.85667,      -9.44641
700.647,66.90833,      -9.44696
701.164,66.96000,      -9.44770
701.681,67.01167,      -9.44845
702.202,67.06333,      -9.44900
702.715,67.11500,      -9.44975
703.236,67.16667,      -9.45059
703.749,67.21833,      -9.45174
704.267,67.27000,      -9.45239
704.785,67.32167,      -9.45314
705.301,67.37333,      -9.45388
705.818,67.42500,      -9.45463
706.338,67.47667,      -9.45568
706.853,67.52833,      -9.45683
707.366,67.58000,      -9.45798
707.884,67.63167,      -9.45932
708.397,67.68333,      -9.46057
708.917,67.73500,      -9.46092
709.434,67.78667,      -9.46206
709.949,67.83833,      -9.46301
710.466,67.89000,      -9.46356
710.979,67.94167,      -9.46421
711.493,67.99333,      -9.46496
712.012,68.04500,      -9.46590
712.523,68.09667,      -9.46696
713.041,68.14833,      -9.46820
713.554,68.20000,      -9.46985
714.07,68.25167,      -9.47140
714.585,68.30333,      -9.47264
715.102,68.35500,      -9.47389
715.619,68.40667,      -9.47484
716.136,68.45833,      -9.47568
716.657,68.51000,      -9.47653
717.175,68.56167,      -9.47707
717.692,68.61333,      -9.47762
718.211,68.66500,      -9.47827
718.726,68.71667,      -9.47912
719.24,68.76833,      -9.48026
719.755,68.82000,      -9.48111
720.274,68.87167,      -9.48196
720.789,68.92333,      -9.48251
721.305,68.97500,      -9.48325
721.823,69.02667,      -9.48410
722.341,69.07833,      -9.48424
722.861,69.13000,      -9.48389
723.378,69.18167,      -9.48403
723.896,69.23333,      -9.48448
724.415,69.28500,      -9.48473
724.929,69.33667,      -9.48567
725.448,69.38833,      -9.48682
725.963,69.44000,      -9.48887
726.474,69.49167,      -9.49102
726.99,69.54333,      -9.49286
727.508,69.59500,      -9.49391
728.024,69.64667,      -9.49475
728.542,69.69833,      -9.49519
729.059,69.75000,      -9.49554
729.573,69.80167,      -9.49639
730.091,69.85333,      -9.49713
730.605,69.90500,      -9.49808
731.122,69.95667,      -9.49922
731.64,70.00833,      -9.50027
732.154,70.06000,      -9.50111
732.67,70.11167,      -9.50226
733.186,70.16333,      -9.50381
733.7,70.21500,      -9.50515
734.217,70.26667,      -9.50630
734.728,70.31833,      -9.50714
735.246,70.37000,      -9.50799
735.761,70.42167,      -9.50843
736.279,70.47333,      -9.50887
736.797,70.52500,      -9.50952
737.314,70.57667,      -9.51006
737.83,70.62833,      -9.51080
738.349,70.68000,      -9.51165
738.865,70.73167,      -9.51239
739.388,70.78333,      -9.51293
739.901,70.83500,      -9.51398
740.418,70.88667,      -9.51482
740.937,70.93833,      -9.51566
741.452,70.99000,      -9.51681
741.97,71.04167,      -9.51805
742.488,71.09333,      -9.51919
743.004,71.14500,      -9.51983
743.523,71.19667,      -9.52018
744.039,71.24833,      -9.52052
744.557,71.30000,      -9.52206
745.073,71.35167,      -9.52360
745.586,71.40333,      -9.52495
746.104,71.45500,      -9.52589
746.62,71.50667,      -9.52653
747.139,71.55833,      -9.52727
747.658,71.61000,      -9.52761
748.176,71.66167,      -9.52815
748.691,71.71333,      -9.52899
749.212,71.76500,      -9.53013
749.729,71.81667,      -9.53167
750.246,71.86833,      -9.53341
750.764,71.92000,      -9.53545
751.279,71.97167,      -9.53680
751.796,72.02333,      -9.53754
752.314,72.07500,      -9.53798
752.827,72.12667,      -9.53852
753.343,72.17833,      -9.53916
753.857,72.23000,      -9.54020
754.37,72.28167,      -9.54124
754.89,72.33333,      -9.54238
755.408,72.38500,      -9.54322
755.926,72.43667,      -9.54385
756.444,72.48833,      -9.54459
756.959,72.54000,      -9.54543
757.473,72.59167,      -9.54657
757.986,72.64333,      -9.54721
758.502,72.69500,      -9.54795
759.019,72.74667,      -9.54859
759.536,72.79833,      -9.54943
760.055,72.85000,      -9.55046
760.572,72.90167,      -9.55140
761.089,72.95333,      -9.55264
761.605,73.00500,      -9.55388
762.12,73.05667,      -9.55531
762.639,73.10833,      -9.55705
763.154,73.16000,      -9.55849
763.67,73.21167,      -9.56012
764.186,73.26333,      -9.56166
764.702,73.31500,      -9.56280
765.219,73.36667,      -9.56343
765.732,73.41833,      -9.56447
766.25,73.47000,      -9.56530
766.768,73.52167,      -9.56594
767.285,73.57333,      -9.56657
767.801,73.62500,      -9.56731
768.319,73.67667,      -9.56824
768.837,73.72833,      -9.56928
769.356,73.78000,      -9.57031
769.869,73.83167,      -9.57114
770.386,73.88333,      -9.57218
770.9,73.93500,      -9.57291
771.416,73.98667,      -9.57385
771.936,74.03833,      -9.57478
772.453,74.09000,      -9.57561
772.969,74.14167,      -9.57644
773.49,74.19333,      -9.57627
774.006,74.24500,      -9.57731
774.521,74.29667,      -9.57784
775.036,74.34833,      -9.57857
775.548,74.40000,      -9.57981
776.063,74.45167,      -9.58094
776.579,74.50333,      -9.58277
777.094,74.55500,      -9.58510
777.61,74.60667,      -9.58733
778.126,74.65833,      -9.58826
778.645,74.71000,      -9.58879
779.162,74.76167,      -9.58962
779.681,74.81333,      -9.59075
780.197,74.86500,      -9.59178
780.715,74.91667,      -9.59271
781.232,74.96833,      -9.59344
781.748,75.02000,      -9.59407
782.264,75.07167,      -9.59460
782.784,75.12333,      -9.59552
783.3,75.17500,      -9.59645
783.819,75.22667,      -9.59778
784.335,75.27833,      -9.59891
784.85,75.33000,      -9.59974
785.364,75.38167,      -9.60137
785.876,75.43333,      -9.60340
786.396,75.48500,      -9.60592
786.91,75.53667,      -9.60805
787.428,75.58833,      -9.60907
787.945,75.64000,      -9.60920
788.465,75.69167,      -9.60952
788.984,75.74333,      -9.61034
789.502,75.79500,      -9.61067
790.019,75.84667,      -9.61119
790.538,75.89833,      -9.61192
791.055,75.95000,      -9.61314
791.57,76.00167,      -9.61477
792.084,76.05333,      -9.61689
792.6,76.10500,      -9.61862
793.114,76.15667,      -9.62004
793.635,76.20833,      -9.62226
794.153,76.26000,      -9.62338
794.673,76.31167,      -9.62390
795.192,76.36333,      -9.62442
795.71,76.41500,      -9.62565
796.226,76.46667,      -9.62687
796.741,76.51833,      -9.62829
797.257,76.57000,      -9.63071
797.774,76.62167,      -9.63253
798.29,76.67333,      -9.63375
798.802,76.72500,      -9.63468
799.319,76.77667,      -9.63550
799.518,76.79667,      -9.63592