File: data-raw/TGA/cellulose.csv
#EXPORTTYPE:                 ,DATA SINGLE
#FILE:                       ,cellulose.ngb-st9
#FORMAT:                     ,NETZSCH5
#FTYPE:                      ,ANSI
#IDENTITY:                   ,Saras
#DECIMAL:                    ,POINT
#SEPARATOR:                  ,COMMA
#MTYPE:                      ,TG
#INSTRUMENT:                 ,NETZSCH TG 209F1 Libra
#PROJECT:                    ,IL
#DATE/TIME:                  ,30/05/2017 2:08:57 PM (UTC+10)
#CORR. FILE:                 ,
#TEMPCAL:                    ,TCALZERO.TCX
#LABORATORY:                 ,Mulvaney
#OPERATOR:                   ,JGC
#REMARK:                     ,Training run
#SAMPLE:                     ,cellulose
#SAMPLE MASS /mg:            ,17.1559
#MATERIAL:                   ,CZTSE
#TYPE OF CRUCIBLE:           ,Al2O3
#SAMPLE CRUCIBLE MASS /mg:   ,312.1469
#REFERENCE CRUCIBLE MASS /mg:,
#M.RANGE /mg:                ,2000
#CORR. CODE:                 ,090
#RANGE:                      ,32°C/10.0(K/min)/800°C
#SEGMENT:                    ,S1/1
#SEG. 1:                     ,32°C/10.0(K/min)/800°C

##Temp./°C,Time/min,Mass loss/mg
 31.59900, 0.00000,-1.717149e-003
 31.59800, 0.05167,-4.078860e-003
 31.66100, 0.10333,-5.892889e-003
 31.96500, 0.15500,-4.548465e-003
 32.33900, 0.20667,-3.862550e-003
 32.68900, 0.25833,-5.527858e-003
 33.04600, 0.31000,-7.361265e-003
 33.44700, 0.36167,-8.723016e-003
 33.91300, 0.41333,-1.021929e-002
 34.40100, 0.46500,-1.154774e-002
 34.92000, 0.51667,-1.294549e-002
 35.46400, 0.56833,-1.498154e-002
 36.03900, 0.62000,-1.708971e-002
 36.63800, 0.67167,-1.953983e-002
 37.25700, 0.72333,-2.250195e-002
 37.88800, 0.77500,-2.635915e-002
 38.53000, 0.82667,-3.004087e-002
 39.18300, 0.87833,-3.433796e-002
 39.84000, 0.93000,-3.822929e-002
 40.49800, 0.98167,-4.237041e-002
 41.15900, 1.03333,-4.634161e-002
 41.81600, 1.08500,-5.095777e-002
 42.46700, 1.13667,-5.610547e-002
 43.11000, 1.18833,-6.169265e-002
 43.74700, 1.24000,-6.715740e-002
 44.37300, 1.29167,-7.214645e-002
 44.99000, 1.34333,-7.753633e-002
 45.59500, 1.39500,-8.319730e-002
 46.18900, 1.44667,-8.953410e-002
 46.77300, 1.49833,-9.578795e-002
 47.34400, 1.55000,      -0.10290
 47.90600, 1.60167,      -0.10993
 48.45800, 1.65333,      -0.11777
 48.99700, 1.70500,      -0.12561
 49.53000, 1.75667,      -0.13345
 50.05400, 1.80833,      -0.14203
 50.57300, 1.86000,      -0.14990
 51.07700, 1.91167,      -0.15876
 51.58900, 1.96333,      -0.16682
 52.09000, 2.01500,      -0.17595
 52.58900, 2.06667,      -0.18460
 53.08200, 2.11833,      -0.19415
 53.57400, 2.17000,      -0.20402
 54.07000, 2.22167,      -0.21356
 54.56500, 2.27333,      -0.22397
 55.05500, 2.32500,      -0.23387
 55.54700, 2.37667,      -0.24470
 56.04000, 2.42833,      -0.25545
 56.53300, 2.48000,      -0.26628
 57.02800, 2.53167,      -0.27673
 57.53300, 2.58333,      -0.28814
 58.03200, 2.63500,      -0.29968
 58.53600, 2.68667,      -0.31126
 59.04300, 2.73833,      -0.32385
 59.54700, 2.79000,      -0.33598
 60.05000, 2.84167,      -0.34862
 60.56200, 2.89333,      -0.36100
 61.07800, 2.94500,      -0.37428
 61.59500, 2.99667,      -0.38685
 62.10600, 3.04833,      -0.40077
 62.62200, 3.10000,      -0.41443
 63.14500, 3.15167,      -0.43041
 63.66300, 3.20333,      -0.45265
 64.18900, 3.25500,      -0.46321
 64.71000, 3.30667,      -0.47546
 65.23100, 3.35833,      -0.49157
 65.75600, 3.41000,      -0.51001
 66.27400, 3.46167,      -0.52111
 66.79600, 3.51333,      -0.53403
 67.31900, 3.56500,      -0.55836
 67.84200, 3.61667,      -0.56879
 68.36500, 3.66833,      -0.58119
 68.88500, 3.72000,      -0.60630
 69.40900, 3.77167,      -0.61721
 69.93400, 3.82333,      -0.63983
 70.45300, 3.87500,      -0.65133
 70.97100, 3.92667,      -0.67283
 71.49400, 3.97833,      -0.68424
 72.01400, 4.03000,      -0.69694
 72.53400, 4.08167,      -0.72295
 73.05400, 4.13333,      -0.74066
 73.57100, 4.18500,      -0.75365
 74.09400, 4.23667,      -0.76566
 74.61400, 4.28833,      -0.78837
 75.13600, 4.34000,      -0.79988
 75.65700, 4.39167,      -0.82227
 76.17400, 4.44333,      -0.83967
 76.69400, 4.49500,      -0.85328
 77.21100, 4.54667,      -0.86445
 77.72900, 4.59833,      -0.89085
 78.25200, 4.65000,      -0.90177
 78.77200, 4.70167,      -0.91438
 79.28600, 4.75333,      -0.93986
 79.80500, 4.80500,      -0.95726
 80.32300, 4.85667,      -0.97146
 80.84300, 4.90833,      -0.98296
 81.36100, 4.96000,      -1.00666
 81.88200, 5.01167,      -1.01946
 82.39900, 5.06333,      -1.03116
 82.90900, 5.11500,      -1.05431
 83.43200, 5.16667,      -1.06635
 83.95300, 5.21833,      -1.07796
 84.47300, 5.27000,      -1.09086
 84.99300, 5.32167,      -1.11574
 85.51200, 5.37333,      -1.12664
 86.03100, 5.42500,      -1.13923
 86.54900, 5.47667,      -1.15273
 87.06700, 5.52833,      -1.17722
 87.58300, 5.58000,      -1.18771
 88.10300, 5.63167,      -1.20030
 88.61900, 5.68333,      -1.21167
 89.13700, 5.73500,      -1.22478
 89.65300, 5.78667,      -1.23717
 90.17300, 5.83833,      -1.25978
 90.69200, 5.89000,      -1.27107
 91.21000, 5.94167,      -1.28267
 91.72900, 5.99333,      -1.30855
 92.24400, 6.04500,      -1.31673
 92.76400, 6.09667,      -1.32684
 93.28600, 6.14833,      -1.33665
 93.80400, 6.20000,      -1.34804
 94.32100, 6.25167,      -1.35982
 94.84300, 6.30333,      -1.38212
 95.35800, 6.35500,      -1.39050
 95.87600, 6.40667,      -1.39948
 96.39500, 6.45833,      -1.41008
 96.91500, 6.51000,      -1.42028
 97.43400, 6.56167,      -1.43157
 97.94700, 6.61333,      -1.44254
 98.46000, 6.66500,      -1.45541
 98.97400, 6.71667,      -1.46609
 99.48900, 6.76833,      -1.47658
100.001, 6.82000,      -1.48716
100.513, 6.87167,      -1.49707
101.028, 6.92333,      -1.50850
101.545, 6.97500,      -1.51913
102.065, 7.02667,      -1.52976
102.58, 7.07833,      -1.53977
103.1, 7.13000,      -1.54970
103.618, 7.18167,      -1.55871
104.137, 7.23333,      -1.56782
104.656, 7.28500,      -1.57763
105.171, 7.33667,      -1.58681
105.688, 7.38833,      -1.59652
106.205, 7.44000,      -1.60572
106.723, 7.49167,      -1.61472
107.242, 7.54333,      -1.62273
107.757, 7.59500,      -1.63152
108.273, 7.64667,      -1.64081
108.788, 7.69833,      -1.64969
109.303, 7.75000,      -1.65810
109.819, 7.80167,      -1.66559
110.336, 7.85333,      -1.67298
110.854, 7.90500,      -1.67958
111.368, 7.95667,      -1.68716
111.884, 8.00833,      -1.69504
112.399, 8.06000,      -1.70323
112.913, 8.11167,      -1.71141
113.428, 8.16333,      -1.71960
113.946, 8.21500,      -1.72739
114.46, 8.26667,      -1.73406
114.976, 8.31833,      -1.74065
115.496, 8.37000,      -1.74654
116.011, 8.42167,      -1.75332
116.527, 8.47333,      -1.76010
117.042, 8.52500,      -1.76758
117.559, 8.57667,      -1.77495
118.072, 8.62833,      -1.78271
118.585, 8.68000,      -1.79028
119.102, 8.73167,      -1.79616
119.617, 8.78333,      -1.80044
120.135, 8.83500,      -1.80562
120.651, 8.88667,      -1.81119
121.168, 8.93833,      -1.81657
121.686, 8.99000,      -1.82254
122.204, 9.04167,      -1.82801
122.72, 9.09333,      -1.83477
123.235, 9.14500,      -1.84173
123.753, 9.19667,      -1.84810
124.266, 9.24833,      -1.85435
124.782, 9.30000,      -1.85982
125.296, 9.35167,      -1.86488
125.814, 9.40333,      -1.86925
126.328, 9.45500,      -1.87521
126.844, 9.50667,      -1.87997
127.36, 9.55833,      -1.88493
127.877, 9.61000,      -1.89009
128.395, 9.66167,      -1.89505
128.91, 9.71333,      -1.90080
129.431, 9.76500,      -1.90617
129.945, 9.81667,      -1.91142
130.46, 9.86833,      -1.91656
130.976, 9.92000,      -1.92101
131.493, 9.97167,      -1.92537
132.009,10.02333,      -1.93043
132.525,10.07500,      -1.93547
133.044,10.12667,      -1.93943
133.56,10.17833,      -1.94428
134.078,10.23000,      -1.94883
134.595,10.28167,      -1.95308
135.112,10.33333,      -1.95702
135.632,10.38500,      -1.96058
136.152,10.43667,      -1.96333
136.669,10.48833,      -1.96738
137.186,10.54000,      -1.97152
137.703,10.59167,      -1.97576
138.221,10.64333,      -1.98080
138.736,10.69500,      -1.98524
139.253,10.74667,      -1.98898
139.77,10.79833,      -1.99252
140.286,10.85000,      -1.99696
140.801,10.90167,      -2.00060
141.319,10.95333,      -2.00395
141.838,11.00500,      -2.00779
142.354,11.05667,      -2.01093
142.869,11.10833,      -2.01427
143.387,11.16000,      -2.01731
143.904,11.21167,      -2.02015
144.425,11.26333,      -2.02299
144.938,11.31500,      -2.02561
145.458,11.36667,      -2.02886
145.976,11.41833,      -2.03280
146.491,11.47000,      -2.03623
147.008,11.52167,      -2.03776
147.524,11.57333,      -2.04060
148.043,11.62500,      -2.04393
148.557,11.67667,      -2.04716
149.074,11.72833,      -2.04999
149.589,11.78000,      -2.05292
150.107,11.83167,      -2.05616
150.624,11.88333,      -2.05889
151.144,11.93500,      -2.06123
151.658,11.98667,      -2.06396
152.175,12.03833,      -2.06668
152.689,12.09000,      -2.06941
153.206,12.14167,      -2.07184
153.724,12.19333,      -2.07378
154.239,12.24500,      -2.07591
154.756,12.29667,      -2.07734
155.27,12.34833,      -2.07966
155.79,12.40000,      -2.08239
156.303,12.45167,      -2.08502
156.82,12.50333,      -2.08725
157.335,12.55500,      -2.08928
157.852,12.60667,      -2.09130
158.368,12.65833,      -2.09354
158.881,12.71000,      -2.09556
159.399,12.76167,      -2.09719
159.917,12.81333,      -2.09862
160.43,12.86500,      -2.09994
160.946,12.91667,      -2.10097
161.462,12.96833,      -2.10260
161.981,13.02000,      -2.10453
162.498,13.07167,      -2.10646
163.014,13.12333,      -2.10809
163.532,13.17500,      -2.10951
164.051,13.22667,      -2.11034
164.569,13.27833,      -2.11127
165.086,13.33000,      -2.11259
165.6,13.38167,      -2.11382
166.118,13.43333,      -2.11554
166.635,13.48500,      -2.11687
167.151,13.53667,      -2.11829
167.668,13.58833,      -2.11972
168.185,13.64000,      -2.12135
168.701,13.69167,      -2.12327
169.217,13.74333,      -2.12549
169.732,13.79500,      -2.12702
170.249,13.84667,      -2.12815
170.764,13.89833,      -2.12947
171.279,13.95000,      -2.13040
171.798,14.00167,      -2.13133
172.315,14.05333,      -2.13226
172.83,14.10500,      -2.13318
173.348,14.15667,      -2.13411
173.866,14.20833,      -2.13514
174.381,14.26000,      -2.13626
174.897,14.31167,      -2.13749
175.414,14.36333,      -2.13882
175.928,14.41500,      -2.14004
176.447,14.46667,      -2.14117
176.965,14.51833,      -2.14210
177.481,14.57000,      -2.14253
178.001,14.62167,      -2.14276
178.515,14.67333,      -2.14319
179.038,14.72500,      -2.14412
179.556,14.77667,      -2.14524
180.07,14.82833,      -2.14597
180.586,14.88000,      -2.14660
181.103,14.93167,      -2.14782
181.619,14.98333,      -2.14905
182.135,15.03500,      -2.15078
182.65,15.08667,      -2.15231
183.163,15.13833,      -2.15384
183.68,15.19000,      -2.15477
184.198,15.24167,      -2.15510
184.713,15.29333,      -2.15554
185.23,15.34500,      -2.15577
185.746,15.39667,      -2.15650
186.264,15.44833,      -2.15763
186.781,15.50000,      -2.15857
187.298,15.55167,      -2.15910
187.815,15.60333,      -2.15953
188.333,15.65500,      -2.16017
188.851,15.70667,      -2.16081
189.367,15.75833,      -2.16124
189.885,15.81000,      -2.16168
190.4,15.86167,      -2.16231
190.918,15.91333,      -2.16304
191.434,15.96500,      -2.16378
191.947,16.01667,      -2.16501
192.461,16.06833,      -2.16604
192.976,16.12000,      -2.16708
193.493,16.17167,      -2.16833
194.01,16.22333,      -2.16967
194.527,16.27500,      -2.17081
195.042,16.32667,      -2.17135
195.564,16.37833,      -2.17149
196.079,16.43000,      -2.17173
196.6,16.48167,      -2.17218
197.115,16.53333,      -2.17281
197.633,16.58500,      -2.17356
198.153,16.63667,      -2.17440
198.668,16.68833,      -2.17494
199.183,16.74000,      -2.17568
199.699,16.79167,      -2.17703
200.215,16.84333,      -2.17917
200.727,16.89500,      -2.18152
201.244,16.94667,      -2.18406
201.759,16.99833,      -2.18631
202.278,17.05000,      -2.18676
202.796,17.10167,      -2.18721
203.311,17.15333,      -2.18735
203.829,17.20500,      -2.18810
204.346,17.25667,      -2.18925
204.864,17.30833,      -2.19059
205.379,17.36000,      -2.19194
205.896,17.41167,      -2.19289
206.413,17.46333,      -2.19364
206.93,17.51500,      -2.19438
207.449,17.56667,      -2.19533
207.967,17.61833,      -2.19638
208.483,17.67000,      -2.19793
209.001,17.72167,      -2.19988
209.515,17.77333,      -2.20202
210.033,17.82500,      -2.20347
210.552,17.87667,      -2.20422
211.069,17.92833,      -2.20497
211.586,17.98000,      -2.20592
212.104,18.03167,      -2.20697
212.62,18.08333,      -2.20851
213.138,18.13500,      -2.21026
213.65,18.18667,      -2.21281
214.169,18.23833,      -2.21536
214.685,18.29000,      -2.21801
215.199,18.34167,      -2.22016
215.714,18.39333,      -2.22290
216.231,18.44500,      -2.22506
216.748,18.49667,      -2.22711
217.262,18.54833,      -2.22956
217.777,18.60000,      -2.23081
218.293,18.65167,      -2.23366
218.812,18.70333,      -2.23581
219.327,18.75500,      -2.23836
219.843,18.80667,      -2.23971
220.359,18.85833,      -2.24206
220.877,18.91000,      -2.24471
221.396,18.96167,      -2.24756
221.913,19.01333,      -2.25131
222.429,19.06500,      -2.25446
222.95,19.11667,      -2.25681
223.465,19.16833,      -2.25966
223.983,19.22000,      -2.26332
224.5,19.27167,      -2.26656
225.016,19.32333,      -2.26911
225.531,19.37500,      -2.27207
226.051,19.42667,      -2.27492
226.568,19.47833,      -2.27797
227.086,19.53000,      -2.28132
227.602,19.58167,      -2.28507
228.123,19.63333,      -2.28933
228.639,19.68500,      -2.29368
229.156,19.73667,      -2.29743
229.675,19.78833,      -2.30188
230.19,19.84000,      -2.30633
230.705,19.89167,      -2.31108
231.221,19.94333,      -2.31593
231.738,19.99500,      -2.32098
232.255,20.04667,      -2.32644
232.772,20.09833,      -2.33179
233.288,20.15000,      -2.33734
233.803,20.20167,      -2.34269
234.317,20.25333,      -2.34844
234.833,20.30500,      -2.35419
235.349,20.35667,      -2.36025
235.869,20.40833,      -2.36700
236.382,20.46000,      -2.37325
236.902,20.51167,      -2.38040
237.42,20.56333,      -2.38706
237.937,20.61500,      -2.39531
238.455,20.66667,      -2.40286
238.974,20.71833,      -2.41101
239.486,20.77000,      -2.41966
240.104,20.82167,      -2.42779
240.626,20.87333,      -2.43681
241.136,20.92500,      -2.44534
241.638,20.97667,      -2.45517
242.143,21.02833,      -2.46491
242.644,21.08000,      -2.47556
243.145,21.13167,      -2.48631
243.648,21.18333,      -2.49796
244.157,21.23500,      -2.50991
244.668,21.28667,      -2.52127
245.177,21.33833,      -2.53372
245.687,21.39000,      -2.54628
246.201,21.44167,      -2.55983
246.712,21.49333,      -2.58559
247.229,21.54500,      -2.59654
247.746,21.59667,      -2.60890
248.265,21.64833,      -2.63605
248.782,21.70000,      -2.65340
249.299,21.75167,      -2.67076
249.818,21.80333,      -2.68991
250.335,21.85500,      -2.70846
250.853,21.90667,      -2.72881
251.372,21.95833,      -2.74877
251.891,22.01000,      -2.77112
252.412,22.06167,      -2.79307
252.932,22.11333,      -2.81702
253.451,22.16500,      -2.84187
253.967,22.21667,      -2.86662
254.484,22.26833,      -2.89427
255.005,22.32000,      -2.91973
255.525,22.37167,      -2.94788
256.042,22.42333,      -2.97683
256.564,22.47500,      -3.00878
257.082,22.52667,      -3.04123
257.6,22.57833,      -3.07348
258.119,22.63000,      -3.10853
258.638,22.68167,      -3.14319
259.159,22.73333,      -3.18094
259.678,22.78500,      -3.21729
260.196,22.83667,      -3.25804
260.713,22.88833,      -3.29869
261.233,22.94000,      -3.34374
261.752,22.99167,      -3.38719
262.269,23.04333,      -3.43614
262.79,23.09500,      -3.48649
263.313,23.14667,      -3.53374
263.83,23.19833,      -3.58689
264.351,23.25000,      -3.63944
264.865,23.30167,      -3.69699
265.384,23.35333,      -3.75284
265.901,23.40500,      -3.81519
266.417,23.45667,      -3.87574
266.934,23.50833,      -3.94309
267.455,23.56000,      -4.01214
267.972,23.61167,      -4.07899
268.493,23.66333,      -4.15244
269.017,23.71500,      -4.22419
269.537,23.76667,      -4.30194
270.058,23.81833,      -4.37659
270.577,23.87000,      -4.45824
271.099,23.92167,      -4.53749
271.617,23.97333,      -4.62514
272.135,24.02500,      -4.71478
272.654,24.07667,      -4.80113
273.17,24.12833,      -4.89448
273.688,24.18000,      -4.98313
274.205,24.23167,      -5.07908
274.722,24.28333,      -5.17003
275.237,24.33500,      -5.26698
275.754,24.38667,      -5.35922
276.266,24.43833,      -5.45887
276.782,24.49000,      -5.56032
277.29,24.54167,      -5.65487
277.802,24.59333,      -5.75501
278.313,24.64500,      -5.84726
278.824,24.69667,      -5.94541
279.33,24.74833,      -6.03696
279.841,24.80000,      -6.13301
280.35,24.85167,      -6.22225
280.861,24.90333,      -6.31600
281.37,24.95500,      -6.40935
281.878,25.00667,      -6.49570
282.387,25.05833,      -6.58654
282.896,25.11000,      -6.66949
283.405,25.16167,      -6.75724
283.914,25.21333,      -6.83889
284.424,25.26500,      -6.92403
284.935,25.31667,      -7.00148
285.447,25.36833,      -7.08403
285.958,25.42000,      -7.16467
286.473,25.47167,      -7.23992
286.988,25.52333,      -7.32016
287.505,25.57500,      -7.39451
288.023,25.62667,      -7.47355
288.543,25.67833,      -7.54700
289.061,25.73000,      -7.62754
289.583,25.78167,      -7.71008
290.1,25.83333,      -7.78933
290.617,25.88500,      -7.87477
291.142,25.93667,      -7.95781
291.662,25.98833,      -8.04406
292.18,26.04000,      -8.12670
292.7,26.09167,      -8.21274
293.214,26.14333,      -8.29239
293.721,26.19500,      -8.37103
294.221,26.24667,      -8.43658
294.718,26.29833,      -8.49582
295.209,26.35000,      -8.54637
295.702,26.40167,      -8.58711
296.19,26.45333,      -8.62436
296.686,26.50500,      -8.65410
297.181,26.55667,      -8.68124
297.681,26.60833,      -8.70419
298.183,26.66000,      -8.72553
298.693,26.71167,      -8.74407
299.205,26.76333,      -8.76171
299.72,26.81500,      -8.77595
300.237,26.86667,      -8.78629
300.757,26.91833,      -8.79823
301.278,26.97000,      -8.80967
301.803,27.02167,      -8.82221
302.326,27.07333,      -8.83284
302.855,27.12500,      -8.84388
303.38,27.17667,      -8.85332
303.909,27.22833,      -8.86326
304.436,27.28000,      -8.87280
304.963,27.33167,      -8.88124
305.487,27.38333,      -8.88998
306.016,27.43500,      -8.89701
306.54,27.48667,      -8.90445
307.065,27.53833,      -8.91179
307.59,27.59000,      -8.91903
308.115,27.64167,      -8.92627
308.635,27.69333,      -8.93321
309.156,27.74500,      -8.93915
309.678,27.79667,      -8.94509
310.199,27.84833,      -8.95113
310.717,27.90000,      -8.95617
311.241,27.95167,      -8.96101
311.76,28.00333,      -8.96595
312.28,28.05500,      -8.97119
312.797,28.10667,      -8.97573
313.314,28.15833,      -8.98067
313.832,28.21000,      -8.98531
314.35,28.26167,      -8.98975
314.867,28.31333,      -8.99439
315.384,28.36500,      -8.99913
315.9,28.41667,      -9.00427
316.416,28.46833,      -9.00881
316.933,28.52000,      -9.01385
317.448,28.57167,      -9.01789
317.966,28.62333,      -9.02253
318.481,28.67500,      -9.02707
318.999,28.72667,      -9.03121
319.514,28.77833,      -9.03565
320.031,28.83000,      -9.03929
320.548,28.88167,      -9.04343
321.065,28.93333,      -9.04717
321.582,28.98500,      -9.05131
322.099,29.03667,      -9.05535
322.617,29.08833,      -9.05959
323.13,29.14000,      -9.06363
323.649,29.19167,      -9.06747
324.168,29.24333,      -9.07201
324.688,29.29500,      -9.07635
325.202,29.34667,      -9.08069
325.72,29.39833,      -9.08523
326.235,29.45000,      -9.09017
326.754,29.50167,      -9.09481
327.27,29.55333,      -9.10005
327.787,29.60500,      -9.10439
328.305,29.65667,      -9.10863
328.822,29.70833,      -9.11256
329.337,29.76000,      -9.11680
329.854,29.81167,      -9.12144
330.372,29.86333,      -9.12578
330.885,29.91500,      -9.13032
331.404,29.96667,      -9.13416
331.922,30.01833,      -9.13860
332.445,30.07000,      -9.14264
332.959,30.12167,      -9.14658
333.476,30.17333,      -9.15072
333.99,30.22500,      -9.15516
334.512,30.27667,      -9.16059
335.028,30.32833,      -9.16533
335.543,30.38000,      -9.17007
336.058,30.43167,      -9.17391
336.574,30.48333,      -9.17815
337.09,30.53500,      -9.18279
337.604,30.58667,      -9.18753
338.121,30.63833,      -9.19236
338.639,30.69000,      -9.19690
339.154,30.74167,      -9.20154
339.672,30.79333,      -9.20598
340.189,30.84500,      -9.21051
340.706,30.89667,      -9.21535
341.224,30.94833,      -9.22049
341.742,31.00000,      -9.22543
342.257,31.05167,      -9.23027
342.774,31.10333,      -9.23490
343.291,31.15500,      -9.23964
343.805,31.20667,      -9.24468
344.324,31.25833,      -9.24942
344.842,31.31000,      -9.25415
345.358,31.36167,      -9.25879
345.873,31.41333,      -9.26373
346.39,31.46500,      -9.26866
346.906,31.51667,      -9.27370
347.426,31.56833,      -9.27874
347.942,31.62000,      -9.28307
348.462,31.67167,      -9.28771
348.977,31.72333,      -9.29195
349.495,31.77500,      -9.29708
350.013,31.82667,      -9.30172
350.529,31.87833,      -9.30645
351.046,31.93000,      -9.31229
351.562,31.98167,      -9.31773
352.077,32.03333,      -9.32306
352.595,32.08500,      -9.32810
353.108,32.13667,      -9.33334
353.628,32.18833,      -9.33887
354.142,32.24000,      -9.34471
354.659,32.29167,      -9.34994
355.177,32.34333,      -9.35468
355.693,32.39500,      -9.35931
356.206,32.44667,      -9.36355
356.726,32.49833,      -9.36768
357.246,32.55000,      -9.37161
357.761,32.60167,      -9.37675
358.278,32.65333,      -9.38118
358.797,32.70500,      -9.38642
359.313,32.75667,      -9.39115
359.83,32.80833,      -9.39629
360.345,32.86000,      -9.40122
360.863,32.91167,      -9.40616
361.377,32.96333,      -9.41199
361.891,33.01500,      -9.41703
362.407,33.06667,      -9.42246
362.925,33.11833,      -9.42769
363.442,33.17000,      -9.43312
363.957,33.22167,      -9.43776
364.476,33.27333,      -9.44189
364.99,33.32500,      -9.44632
365.508,33.37667,      -9.45076
366.022,33.42833,      -9.45589
366.536,33.48000,      -9.46132
367.053,33.53167,      -9.46656
367.565,33.58333,      -9.47159
368.082,33.63500,      -9.47622
368.599,33.68667,      -9.48135
369.122,33.73833,      -9.48678
369.637,33.79000,      -9.49141
370.156,33.84167,      -9.49624
370.672,33.89333,      -9.50157
371.187,33.94500,      -9.50661
371.702,33.99667,      -9.51194
372.216,34.04833,      -9.51707
372.729,34.10000,      -9.52281
373.245,34.15167,      -9.52773
373.76,34.20333,      -9.53266
374.278,34.25500,      -9.53679
374.796,34.30667,      -9.54132
375.311,34.35833,      -9.54705
375.826,34.41000,      -9.55318
376.343,34.46167,      -9.56011
376.859,34.51333,      -9.56554
377.377,34.56500,      -9.56977
377.893,34.61667,      -9.57380
378.408,34.66833,      -9.57883
378.927,34.72000,      -9.58415
379.442,34.77167,      -9.58988
379.957,34.82333,      -9.59601
380.474,34.87500,      -9.60134
380.99,34.92667,      -9.60627
381.506,34.97833,      -9.61120
382.021,35.03000,      -9.61612
382.541,35.08167,      -9.62075
383.06,35.13333,      -9.62558
383.576,35.18500,      -9.63030
384.093,35.23667,      -9.63533
384.608,35.28833,      -9.64076
385.123,35.34000,      -9.64689
385.638,35.39167,      -9.65321
386.154,35.44333,      -9.65824
386.67,35.49500,      -9.66387
387.186,35.54667,      -9.66909
387.7,35.59833,      -9.67502
388.218,35.65000,      -9.68064
388.734,35.70167,      -9.68517
389.248,35.75333,      -9.68949
389.766,35.80500,      -9.69392
390.285,35.85667,      -9.69904
390.799,35.90833,      -9.70377
391.314,35.96000,      -9.70849
391.83,36.01167,      -9.71372
392.35,36.06333,      -9.71964
392.859,36.11500,      -9.72617
393.375,36.16667,      -9.73159
393.89,36.21833,      -9.73701
394.405,36.27000,      -9.74223
394.922,36.32167,      -9.74786
395.439,36.37333,      -9.75288
395.957,36.42500,      -9.75780
396.475,36.47667,      -9.76242
396.993,36.52833,      -9.76744
397.509,36.58000,      -9.77186
398.024,36.63167,      -9.77689
398.542,36.68333,      -9.78261
399.056,36.73500,      -9.78773
399.573,36.78667,      -9.79355
400.084,36.83833,      -9.79847
400.601,36.89000,      -9.80389
401.117,36.94167,      -9.80921
401.632,36.99333,      -9.81533
402.148,37.04500,      -9.82075
402.665,37.09667,      -9.82577
403.179,37.14833,      -9.83209
403.694,37.20000,      -9.83792
404.212,37.25167,      -9.84333
404.729,37.30333,      -9.84625
405.247,37.35500,      -9.84927
405.766,37.40667,      -9.85358
406.281,37.45833,      -9.85911
406.796,37.51000,      -9.86603
407.309,37.56167,      -9.87285
407.82,37.61333,      -9.87967
408.336,37.66500,      -9.88519
408.851,37.71667,      -9.89071
409.366,37.76833,      -9.89542
409.882,37.82000,      -9.89934
410.401,37.87167,      -9.90275
410.918,37.92333,      -9.90637
411.436,37.97500,      -9.91039
411.955,38.02667,      -9.91460
412.472,38.07833,      -9.92022
412.988,38.13000,      -9.92644
413.501,38.18167,      -9.93246
414.017,38.23333,      -9.93638
414.535,38.28500,      -9.94170
415.047,38.33667,      -9.94702
415.564,38.38833,      -9.95203
416.077,38.44000,      -9.95745
416.592,38.49167,      -9.96257
417.107,38.54333,      -9.96728
417.622,38.59500,      -9.97140
418.141,38.64667,      -9.97611
418.657,38.69833,      -9.98073
419.175,38.75000,      -9.98534
419.687,38.80167,      -9.98996
420.2,38.85333,      -9.99478
420.719,38.90500,      -9.99929
421.236,38.95667,     -10.00401
421.751,39.00833,     -10.00822
422.268,39.06000,     -10.01264
422.787,39.11167,     -10.01735
423.299,39.16333,     -10.02237
423.813,39.21500,     -10.02729
424.329,39.26667,     -10.03150
424.841,39.31833,     -10.03622
425.356,39.37000,     -10.04093
425.867,39.42167,     -10.04555
426.382,39.47333,     -10.05126
426.894,39.52500,     -10.05578
427.409,39.57667,     -10.05899
427.92,39.62833,     -10.06141
428.434,39.68000,     -10.06492
428.949,39.73167,     -10.06883
429.46,39.78333,     -10.07475
429.969,39.83500,     -10.08057
430.481,39.88667,     -10.08528
430.997,39.93833,     -10.08919
431.51,39.99000,     -10.09280
432.021,40.04167,     -10.09892
432.541,40.09333,     -10.10223
433.056,40.14500,     -10.10714
433.577,40.19667,     -10.11154
434.1,40.24833,     -10.11455
434.62,40.30000,     -10.11726
435.143,40.35167,     -10.12027
435.664,40.40333,     -10.12328
436.183,40.45500,     -10.12699
436.704,40.50667,     -10.13091
437.222,40.55833,     -10.13462
437.741,40.61000,     -10.13893
438.259,40.66167,     -10.14384
438.778,40.71333,     -10.14815
439.296,40.76500,     -10.15226
439.818,40.81667,     -10.15647
440.336,40.86833,     -10.16038
440.854,40.92000,     -10.16299
441.376,40.97167,     -10.16590
441.891,41.02333,     -10.16872
442.409,41.07500,     -10.17263
442.928,41.12667,     -10.17664
443.444,41.17833,     -10.18075
443.959,41.23000,     -10.18496
444.478,41.28167,     -10.18917
444.993,41.33333,     -10.19398
445.511,41.38500,     -10.19809
446.026,41.43667,     -10.20280
446.544,41.48833,     -10.20581
447.06,41.54000,     -10.20872
447.58,41.59167,     -10.21222
448.095,41.64333,     -10.21603
448.612,41.69500,     -10.22054
449.129,41.74667,     -10.22535
449.644,41.79833,     -10.22996
450.161,41.85000,     -10.23377
450.679,41.90167,     -10.23698
451.196,41.95333,     -10.24038
451.714,42.00500,     -10.24389
452.23,42.05667,     -10.24740
452.748,42.10833,     -10.25111
453.263,42.16000,     -10.25472
453.781,42.21167,     -10.25792
454.299,42.26333,     -10.26063
454.816,42.31500,     -10.26324
455.33,42.36667,     -10.26645
455.849,42.41833,     -10.27115
456.365,42.47000,     -10.27776
456.874,42.52167,     -10.28438
457.389,42.57333,     -10.29058
457.905,42.62500,     -10.29479
458.422,42.67667,     -10.29659
458.937,42.72833,     -10.30160
459.456,42.78000,     -10.30410
459.977,42.83167,     -10.30480
460.498,42.88333,     -10.30541
461.02,42.93500,     -10.30741
461.538,42.98667,     -10.31122
462.054,43.03833,     -10.31643
462.567,43.09000,     -10.32304
463.076,43.14167,     -10.32925
463.593,43.19333,     -10.33345
464.109,43.24500,     -10.33665
464.629,43.29667,     -10.34116
465.143,43.34833,     -10.34466
465.664,43.40000,     -10.34856
466.181,43.45167,     -10.35097
466.698,43.50333,     -10.35377
467.214,43.55500,     -10.35858
467.729,43.60667,     -10.36219
468.247,43.65833,     -10.36529
468.765,43.71000,     -10.36769
469.282,43.76167,     -10.36959
469.797,43.81333,     -10.37320
470.314,43.86500,     -10.37850
470.831,43.91667,     -10.38281
471.347,43.96833,     -10.38771
471.865,44.02000,     -10.39191
472.38,44.07167,     -10.39412
472.9,44.12333,     -10.39562
473.417,44.17500,     -10.39832
473.933,44.22667,     -10.40233
474.449,44.27833,     -10.40673
474.96,44.33000,     -10.41154
475.473,44.38167,     -10.41574
475.995,44.43333,     -10.41714
476.513,44.48500,     -10.41784
477.028,44.53667,     -10.41934
477.545,44.58833,     -10.42334
478.058,44.64000,     -10.43025
478.57,44.69167,     -10.43745
479.089,44.74333,     -10.44005
479.604,44.79500,     -10.44065
480.122,44.84667,     -10.44065
480.642,44.89833,     -10.44115
481.159,44.95000,     -10.44305
481.671,45.00167,     -10.44636
482.184,45.05333,     -10.45116
482.699,45.10500,     -10.45516
483.215,45.15667,     -10.45856
483.729,45.20833,     -10.46267
484.243,45.26000,     -10.46587
484.76,45.31167,     -10.46786
485.277,45.36333,     -10.47036
485.792,45.41500,     -10.47446
486.307,45.46667,     -10.47846
486.825,45.51833,     -10.48086
487.343,45.57000,     -10.48216
487.859,45.62167,     -10.48336
488.376,45.67333,     -10.48566
488.895,45.72500,     -10.48766
489.415,45.77667,     -10.48845
489.933,45.82833,     -10.48985
490.452,45.88000,     -10.49275
490.964,45.93167,     -10.49716
491.48,45.98333,     -10.50085
491.996,46.03500,     -10.50205
492.512,46.08667,     -10.50375
493.031,46.13833,     -10.50555
493.546,46.19000,     -10.50875
494.062,46.24167,     -10.51205
494.575,46.29333,     -10.51555
495.095,46.34500,     -10.51744
495.61,46.39667,     -10.51824
496.132,46.44833,     -10.51863
496.648,46.50000,     -10.51933
497.164,46.55167,     -10.52133
497.679,46.60333,     -10.52433
498.191,46.65500,     -10.52833
498.705,46.70667,     -10.53153
499.221,46.75833,     -10.53392
499.74,46.81000,     -10.53572
500.258,46.86167,     -10.53671
500.775,46.91333,     -10.53781
501.293,46.96500,     -10.53860
501.813,47.01667,     -10.53930
502.332,47.06833,     -10.54039
502.847,47.12000,     -10.54289
503.364,47.17167,     -10.54559
503.88,47.22333,     -10.54799
504.398,47.27500,     -10.54988
504.912,47.32667,     -10.55188
505.43,47.37833,     -10.55277
505.948,47.43000,     -10.55327
506.464,47.48167,     -10.55447
506.982,47.53333,     -10.55536
507.498,47.58500,     -10.55716
508.011,47.63667,     -10.56066
508.528,47.68833,     -10.56395
509.044,47.74000,     -10.56555
509.559,47.79167,     -10.56774
510.075,47.84333,     -10.57024
510.588,47.89500,     -10.57113
511.105,47.94667,     -10.57253
511.623,47.99833,     -10.57412
512.141,48.05000,     -10.57591
512.657,48.10167,     -10.57741
513.172,48.15333,     -10.57901
513.691,48.20500,     -10.58140
514.204,48.25667,     -10.58290
514.72,48.30833,     -10.58339
515.238,48.36000,     -10.58418
515.753,48.41167,     -10.58528
516.272,48.46333,     -10.58597
516.792,48.51500,     -10.58706
517.308,48.56667,     -10.58876
517.827,48.61833,     -10.59025
518.345,48.67000,     -10.59114
518.86,48.72167,     -10.59194
519.38,48.77333,     -10.59243
519.896,48.82500,     -10.59293
520.41,48.87667,     -10.59422
520.925,48.92833,     -10.59692
521.442,48.98000,     -10.60031
521.958,49.03167,     -10.60270
522.475,49.08333,     -10.60439
522.99,49.13500,     -10.60549
523.507,49.18667,     -10.60618
524.027,49.23833,     -10.60687
524.546,49.29000,     -10.60766
525.062,49.34167,     -10.60855
525.577,49.39333,     -10.60925
526.095,49.44500,     -10.60994
526.612,49.49667,     -10.61023
527.13,49.54833,     -10.61012
527.648,49.60000,     -10.60982
528.164,49.65167,     -10.60991
528.68,49.70333,     -10.61030
529.199,49.75500,     -10.61099
529.716,49.80667,     -10.61228
530.232,49.85833,     -10.61498
530.745,49.91000,     -10.61837
531.259,49.96167,     -10.62046
531.771,50.01333,     -10.62346
532.287,50.06500,     -10.62655
532.807,50.11667,     -10.62763
533.322,50.16833,     -10.62843
533.84,50.22000,     -10.62902
534.354,50.27167,     -10.62991
534.87,50.32333,     -10.63060
535.391,50.37500,     -10.63068
535.909,50.42667,     -10.63077
536.426,50.47833,     -10.63096
536.942,50.53000,     -10.63166
537.458,50.58167,     -10.63215
537.975,50.63333,     -10.63284
538.49,50.68500,     -10.63353
539.009,50.73667,     -10.63462
539.525,50.78833,     -10.63561
540.044,50.84000,     -10.63669
540.561,50.89167,     -10.63758
541.078,50.94333,     -10.63837
541.594,50.99500,     -10.63916
542.11,51.04667,     -10.63975
542.629,51.09833,     -10.64044
543.142,51.15000,     -10.64083
543.655,51.20167,     -10.64122
544.171,51.25333,     -10.64151
544.689,51.30500,     -10.64190
545.208,51.35667,     -10.64228
545.726,51.40833,     -10.64237
546.243,51.46000,     -10.64306
546.757,51.51167,     -10.64415
547.269,51.56333,     -10.64604
547.78,51.61500,     -10.64803
548.295,51.66667,     -10.64972
548.812,51.71833,     -10.65081
549.328,51.77000,     -10.65199
549.845,51.82167,     -10.65247
550.365,51.87333,     -10.65286
550.885,51.92500,     -10.65354
551.402,51.97667,     -10.65363
551.919,52.02833,     -10.65362
552.44,52.08000,     -10.65450
552.954,52.13167,     -10.65659
553.467,52.18333,     -10.65908
553.979,52.23500,     -10.66117
554.495,52.28667,     -10.66146
555.01,52.33833,     -10.66134
555.53,52.39000,     -10.66102
556.052,52.44167,     -10.66060
556.569,52.49333,     -10.66049
557.087,52.54500,     -10.66067
557.6,52.59667,     -10.66106
558.118,52.64833,     -10.66165
558.636,52.70000,     -10.66203
559.154,52.75167,     -10.66271
559.67,52.80333,     -10.66320
560.184,52.85500,     -10.66399
560.696,52.90667,     -10.66457
561.212,52.95833,     -10.66506
561.725,53.01000,     -10.66564
562.24,53.06167,     -10.66653
562.757,53.11333,     -10.66691
563.272,53.16500,     -10.66739
563.789,53.21667,     -10.66798
564.301,53.26833,     -10.66906
564.819,53.32000,     -10.66964
565.334,53.37167,     -10.67003
565.848,53.42333,     -10.67081
566.362,53.47500,     -10.67159
566.882,53.52667,     -10.67227
567.4,53.57833,     -10.67255
567.92,53.63000,     -10.67253
568.437,53.68167,     -10.67241
568.953,53.73333,     -10.67250
569.466,53.78500,     -10.67309
569.979,53.83667,     -10.67427
570.491,53.88833,     -10.67645
571.006,53.94000,     -10.67914
571.516,53.99167,     -10.68192
572.034,54.04333,     -10.68199
572.557,54.09500,     -10.68127
573.079,54.14667,     -10.68014
573.6,54.19833,     -10.67872
574.119,54.25000,     -10.67830
574.633,54.30167,     -10.67839
575.145,54.35333,     -10.67917
575.663,54.40500,     -10.68045
576.172,54.45667,     -10.68234
576.686,54.50833,     -10.68392
577.204,54.56000,     -10.68479
577.723,54.61167,     -10.68517
578.242,54.66333,     -10.68555
578.76,54.71500,     -10.68582
579.279,54.76667,     -10.68610
579.799,54.81833,     -10.68618
580.317,54.87000,     -10.68636
580.836,54.92167,     -10.68644
581.352,54.97333,     -10.68681
581.868,55.02500,     -10.68719
582.382,55.07667,     -10.68737
582.899,55.12833,     -10.68745
583.416,55.18000,     -10.68773
583.933,55.23167,     -10.68820
584.445,55.28333,     -10.68939
584.962,55.33500,     -10.69106
585.477,55.38667,     -10.69314
585.994,55.43833,     -10.69471
586.512,55.49000,     -10.69539
587.029,55.54167,     -10.69537
587.547,55.59333,     -10.69544
588.062,55.64500,     -10.69582
588.579,55.69667,     -10.69609
589.098,55.74833,     -10.69687
589.614,55.80000,     -10.69744
590.126,55.85167,     -10.69822
590.645,55.90333,     -10.69909
591.164,55.95500,     -10.69947
591.683,56.00667,     -10.69984
592.2,56.05833,     -10.70021
592.719,56.11000,     -10.70039
593.239,56.16167,     -10.70046
593.758,56.21333,     -10.70073
594.278,56.26500,     -10.70110
594.796,56.31667,     -10.70138
595.317,56.36833,     -10.70185
595.832,56.42000,     -10.70242
596.349,56.47167,     -10.70320
596.865,56.52333,     -10.70407
597.38,56.57500,     -10.70485
597.896,56.62667,     -10.70522
598.413,56.67833,     -10.70529
598.93,56.73000,     -10.70546
599.446,56.78167,     -10.70583
599.962,56.83333,     -10.70641
600.475,56.88500,     -10.70708
600.99,56.93667,     -10.70785
601.501,56.98833,     -10.70843
602.02,57.04000,     -10.70920
602.538,57.09167,     -10.71006
603.062,57.14333,     -10.71113
603.579,57.19500,     -10.71219
604.096,57.24667,     -10.71287
604.611,57.29833,     -10.71324
605.13,57.35000,     -10.71341
605.644,57.40167,     -10.71378
606.163,57.45333,     -10.71455
606.683,57.50500,     -10.71551
607.198,57.55667,     -10.71628
607.713,57.60833,     -10.71665
608.234,57.66000,     -10.71662
608.75,57.71167,     -10.71649
609.264,57.76333,     -10.71646
609.783,57.81500,     -10.71663
610.301,57.86667,     -10.71669
610.814,57.91833,     -10.71737
611.328,57.97000,     -10.71994
611.84,58.02167,     -10.72391
612.353,58.07333,     -10.72658
612.867,58.12500,     -10.72664
613.385,58.17667,     -10.72631
613.904,58.22833,     -10.72617
614.421,58.28000,     -10.72654
614.938,58.33167,     -10.72700
615.457,58.38333,     -10.72687
615.972,58.43500,     -10.72724
616.485,58.48667,     -10.72921
617.001,58.53833,     -10.73127
617.518,58.59000,     -10.73124
618.038,58.64167,     -10.73070
618.553,58.69333,     -10.73066
619.067,58.74500,     -10.73173
619.582,58.79667,     -10.73390
620.097,58.84833,     -10.73476
620.611,58.90000,     -10.73483
621.131,58.95167,     -10.73479
621.645,59.00333,     -10.73576
622.161,59.05500,     -10.73702
622.678,59.10667,     -10.73749
623.192,59.15833,     -10.73835
623.709,59.21000,     -10.74001
624.224,59.26167,     -10.74208
624.743,59.31333,     -10.74454
625.262,59.36500,     -10.74490
625.782,59.41667,     -10.74446
626.298,59.46833,     -10.74443
626.813,59.52000,     -10.74439
627.325,59.57167,     -10.74576
627.838,59.62333,     -10.74822
628.357,59.67500,     -10.74738
628.867,59.72667,     -10.74795
629.381,59.77833,     -10.75131
629.898,59.83000,     -10.75497
630.416,59.88167,     -10.75723
630.934,59.93333,     -10.75759
631.451,59.98500,     -10.75895
631.965,60.03667,     -10.76102
632.48,60.08833,     -10.76328
632.994,60.14000,     -10.76374
633.513,60.19167,     -10.76320
634.028,60.24333,     -10.76276
634.547,60.29500,     -10.76272
635.063,60.34667,     -10.76418
635.579,60.39833,     -10.76654
636.099,60.45000,     -10.76900
636.609,60.50167,     -10.77257
637.126,60.55333,     -10.77593
637.643,60.60500,     -10.77639
638.159,60.65667,     -10.77645
638.674,60.70833,     -10.77851
639.19,60.76000,     -10.77996
639.711,60.81167,     -10.77992
640.233,60.86333,     -10.77977
640.75,60.91500,     -10.77954
641.272,60.96667,     -10.78009
641.787,61.01833,     -10.78075
642.302,61.07000,     -10.78161
642.815,61.12167,     -10.78268
643.329,61.17333,     -10.78384
643.847,61.22500,     -10.78509
644.362,61.27667,     -10.78615
644.889,61.32833,     -10.78630
645.404,61.38000,     -10.78636
645.917,61.43167,     -10.78772
646.431,61.48333,     -10.78988
646.941,61.53500,     -10.79235
647.457,61.58667,     -10.79480
647.967,61.63833,     -10.79897
648.476,61.69000,     -10.80363
648.987,61.74167,     -10.80738
649.504,61.79333,     -10.80834
650.022,61.84500,     -10.80769
650.542,61.89667,     -10.80784
651.063,61.94833,     -10.80820
651.577,62.00000,     -10.81016
652.092,62.05167,     -10.81351
652.605,62.10333,     -10.81617
653.119,62.15500,     -10.81903
653.633,62.20667,     -10.82119
654.148,62.25833,     -10.82424
654.661,62.31000,     -10.82770
655.179,62.36167,     -10.82975
655.697,62.41333,     -10.83111
656.212,62.46500,     -10.83136
656.73,62.51667,     -10.83112
657.248,62.56833,     -10.83297
657.762,62.62000,     -10.83503
658.277,62.67167,     -10.83789
658.788,62.72333,     -10.84365
659.302,62.77500,     -10.84830
659.818,62.82667,     -10.85145
660.336,62.87833,     -10.85210
660.854,62.93000,     -10.85296
661.37,62.98167,     -10.85591
661.887,63.03333,     -10.85887
662.402,63.08500,     -10.85902
662.917,63.13667,     -10.86037
663.43,63.18833,     -10.86293
663.943,63.24000,     -10.86619
664.455,63.29167,     -10.87005
664.972,63.34333,     -10.87290
665.488,63.39500,     -10.87555
666.004,63.44667,     -10.87900
666.524,63.49833,     -10.88235
667.041,63.55000,     -10.88560
667.56,63.60167,     -10.88805
668.082,63.65333,     -10.88990
668.598,63.70500,     -10.89266
669.113,63.75667,     -10.89711
669.626,63.80833,     -10.90147
670.14,63.86000,     -10.90483
670.655,63.91167,     -10.90758
671.175,63.96333,     -10.91053
671.694,64.01500,     -10.91377
672.21,64.06667,     -10.91693
672.729,64.11833,     -10.91958
673.248,64.17000,     -10.92183
673.764,64.22167,     -10.92488
674.278,64.27333,     -10.92814
674.796,64.32500,     -10.93109
675.313,64.37667,     -10.93304
675.829,64.42833,     -10.93519
676.342,64.48000,     -10.93814
676.858,64.53167,     -10.94210
677.371,64.58333,     -10.94645
677.89,64.63500,     -10.94980
678.405,64.68667,     -10.95315
678.925,64.73833,     -10.95720
679.435,64.79000,     -10.96115
679.954,64.84167,     -10.96470
680.474,64.89333,     -10.96785
680.989,64.94500,     -10.97120
681.506,64.99667,     -10.97455
682.021,65.04833,     -10.97840
682.535,65.10000,     -10.98226
683.052,65.15167,     -10.98611
683.567,65.20333,     -10.98986
684.086,65.25500,     -10.99280
684.601,65.30667,     -10.99605
685.117,65.35833,     -10.99970
685.636,65.41000,     -11.00335
686.15,65.46167,     -11.00671
686.663,65.51333,     -11.01016
687.182,65.56500,     -11.01360
687.7,65.61667,     -11.01765
688.217,65.66833,     -11.02150
688.732,65.72000,     -11.02605
689.248,65.77167,     -11.03040
689.765,65.82333,     -11.03485
690.277,65.87500,     -11.04010
690.795,65.92667,     -11.04445
691.311,65.97833,     -11.04860
691.829,66.03000,     -11.05195
692.347,66.08167,     -11.05499
692.867,66.13333,     -11.05784
693.383,66.18500,     -11.06169
693.899,66.23667,     -11.06584
694.414,66.28833,     -11.06969
694.93,66.34000,     -11.07284
695.448,66.39167,     -11.07559
695.967,66.44333,     -11.07893
696.484,66.49500,     -11.08228
697.001,66.54667,     -11.08713
697.516,66.59833,     -11.09228
698.032,66.65000,     -11.09893
698.545,66.70167,     -11.10458
699.063,66.75333,     -11.10692
699.583,66.80500,     -11.10787
700.101,66.85667,     -11.10921
700.619,66.90833,     -11.11146
701.137,66.96000,     -11.11421
701.65,67.01167,     -11.11876
702.15,67.06333,     -11.12502
702.666,67.11500,     -11.13147
703.178,67.16667,     -11.13732
703.689,67.21833,     -11.14147
704.209,67.27000,     -11.14531
704.728,67.32167,     -11.15125
705.246,67.37333,     -11.15770
705.77,67.42500,     -11.15914
706.275,67.47667,     -11.15830
706.796,67.52833,     -11.16004
707.315,67.58000,     -11.16469
707.834,67.63167,     -11.17123
708.35,67.68333,     -11.17718
708.87,67.73500,     -11.18273
709.366,67.78667,     -11.18780
709.885,67.83833,     -11.19174
710.408,67.89000,     -11.19458
710.927,67.94167,     -11.19852
711.446,67.99333,     -11.20377
711.963,68.04500,     -11.20901
712.475,68.09667,     -11.21287
712.992,68.14833,     -11.21752
713.509,68.20000,     -11.22206
714.027,68.25167,     -11.22561
714.545,68.30333,     -11.22995
715.065,68.35500,     -11.23430
715.583,68.40667,     -11.23844
716.104,68.45833,     -11.24159
716.621,68.51000,     -11.24484
717.144,68.56167,     -11.24778
717.66,68.61333,     -11.25083
718.174,68.66500,     -11.25468
718.691,68.71667,     -11.25913
719.205,68.76833,     -11.26438
719.721,68.82000,     -11.26932
720.235,68.87167,     -11.27367
720.752,68.92333,     -11.27792
721.271,68.97500,     -11.28306
721.789,69.02667,     -11.28761
722.307,69.07833,     -11.29155
722.824,69.13000,     -11.29610
723.343,69.18167,     -11.30035
723.861,69.23333,     -11.30499
724.369,69.28500,     -11.30914
724.874,69.33667,     -11.31350
725.39,69.38833,     -11.31714
725.907,69.44000,     -11.32109
726.43,69.49167,     -11.32492
726.95,69.54333,     -11.32817
727.473,69.59500,     -11.33211
727.993,69.64667,     -11.33605
728.508,69.69833,     -11.34080
729.024,69.75000,     -11.34565
729.538,69.80167,     -11.35060
730.053,69.85333,     -11.35545
730.567,69.90500,     -11.36079
731.083,69.95667,     -11.36594
731.601,70.00833,     -11.36978
732.121,70.06000,     -11.37302
732.64,70.11167,     -11.37597
733.156,70.16333,     -11.37931
733.673,70.21500,     -11.38356
734.188,70.26667,     -11.38820
734.702,70.31833,     -11.39245
735.217,70.37000,     -11.39720
735.734,70.42167,     -11.40224
736.252,70.47333,     -11.40598
736.769,70.52500,     -11.41043
737.281,70.57667,     -11.41567
737.793,70.62833,     -11.42232
738.306,70.68000,     -11.42867
738.823,70.73167,     -11.43461
739.339,70.78333,     -11.43795
739.863,70.83500,     -11.43919
740.386,70.88667,     -11.43922
740.905,70.93833,     -11.43947
741.425,70.99000,     -11.44181
741.94,71.04167,     -11.44676
742.453,71.09333,     -11.45260
742.964,71.14500,     -11.45935
743.479,71.19667,     -11.46669
743.993,71.24833,     -11.47244
744.508,71.30000,     -11.47708
745.027,71.35167,     -11.48172
745.55,71.40333,     -11.48575
746.067,71.45500,     -11.49000
746.579,71.50667,     -11.49434
747.098,71.55833,     -11.49878
747.613,71.61000,     -11.50263
748.127,71.66167,     -11.50687
748.643,71.71333,     -11.51101
749.155,71.76500,     -11.51635
749.671,71.81667,     -11.52190
750.19,71.86833,     -11.52623
750.708,71.92000,     -11.53087
751.224,71.97167,     -11.53531
751.738,72.02333,     -11.54016
752.257,72.07500,     -11.54449
752.774,72.12667,     -11.54933
753.285,72.17833,     -11.55408
753.803,72.23000,     -11.55902
754.316,72.28167,     -11.56386
754.835,72.33333,     -11.56790
755.348,72.38500,     -11.57194
755.866,72.43667,     -11.57527
756.384,72.48833,     -11.57891
756.899,72.54000,     -11.58345
757.416,72.59167,     -11.58839
757.935,72.64333,     -11.59363
758.453,72.69500,     -11.59817
758.965,72.74667,     -11.60251
759.478,72.79833,     -11.60674
760,72.85000,     -11.61118
760.514,72.90167,     -11.61582
761.032,72.95333,     -11.62046
761.549,73.00500,     -11.62479
762.068,73.05667,     -11.62893
762.583,73.10833,     -11.63287
763.091,73.16000,     -11.63751
763.612,73.21167,     -11.64234
764.129,73.26333,     -11.64678
764.632,73.31500,     -11.65163
765.149,73.36667,     -11.65646
765.669,73.41833,     -11.66139
766.184,73.47000,     -11.66602
766.703,73.52167,     -11.67106
767.221,73.57333,     -11.67549
767.737,73.62500,     -11.68003
768.252,73.67667,     -11.68456
768.768,73.72833,     -11.68890
769.28,73.78000,     -11.69384
769.799,73.83167,     -11.69847
770.315,73.88333,     -11.70290
770.829,73.93500,     -11.70704
771.349,73.98667,     -11.71157
771.862,74.03833,     -11.71590
772.382,74.09000,     -11.72013
772.899,74.14167,     -11.72347
773.416,74.19333,     -11.72700
773.936,74.24500,     -11.73113
774.45,74.29667,     -11.73466
774.965,74.34833,     -11.73850
775.478,74.40000,     -11.74273
775.997,74.45167,     -11.74736
776.514,74.50333,     -11.75149
777.033,74.55500,     -11.75522
777.55,74.60667,     -11.75885
778.068,74.65833,     -11.76238
778.587,74.71000,     -11.76611
779.099,74.76167,     -11.76944
779.615,74.81333,     -11.77337
780.132,74.86500,     -11.77760
780.646,74.91667,     -11.78203
781.165,74.96833,     -11.78586
781.68,75.02000,     -11.79009
782.194,75.07167,     -11.79462
782.713,75.12333,     -11.79885
783.229,75.17500,     -11.80198
783.745,75.22667,     -11.80391
784.258,75.27833,     -11.80614
784.774,75.33000,     -11.80896
785.293,75.38167,     -11.81189
785.813,75.43333,     -11.81471
786.329,75.48500,     -11.81754
786.845,75.53667,     -11.82087
787.365,75.58833,     -11.82439
787.878,75.64000,     -11.82822
788.395,75.69167,     -11.83195
788.91,75.74333,     -11.83637
789.428,75.79500,     -11.84010
789.947,75.84667,     -11.84382
790.466,75.89833,     -11.84714
790.984,75.95000,     -11.85197
791.501,76.00167,     -11.85769
792.018,76.05333,     -11.86211
792.535,76.10500,     -11.86634
793.05,76.15667,     -11.86896
793.569,76.20833,     -11.87068
794.088,76.26000,     -11.87230
794.608,76.31167,     -11.87542
795.123,76.36333,     -11.87905
795.638,76.41500,     -11.88207
796.157,76.46667,     -11.88539
796.675,76.51833,     -11.88791
797.191,76.57000,     -11.89043
797.717,76.62167,     -11.89325
798.233,76.67333,     -11.89607
798.75,76.72500,     -11.89899
799.268,76.77667,     -11.90231
799.487,76.79833,     -11.90353