File: data-raw/TGA/DD_TGA.csv
#EXPORTTYPE:                 ,DATA SINGLE
#FILE:                       ,DD.ngb-st9
#FORMAT:                     ,NETZSCH5
#FTYPE:                      ,ANSI
#IDENTITY:                   ,Saras
#DECIMAL:                    ,POINT
#SEPARATOR:                  ,COMMA
#MTYPE:                      ,TG
#INSTRUMENT:                 ,NETZSCH TG 209F1 Libra
#PROJECT:                    ,IL
#DATE/TIME:                  ,13/03/2017 2:11:08 PM (UTC+11)
#CORR. FILE:                 ,
#TEMPCAL:                    ,TCALZERO.TCX
#LABORATORY:                 ,Capture Lab
#OPERATOR:                   ,NJN
#REMARK:                     ,Training run
#SAMPLE:                     ,DD
#SAMPLE MASS /mg:            ,16.6699
#MATERIAL:                   ,KHCO3
#TYPE OF CRUCIBLE:           ,Al2O3
#SAMPLE CRUCIBLE MASS /mg:   ,311.7529
#REFERENCE CRUCIBLE MASS /mg:,
#M.RANGE /mg:                ,2000
#CORR. CODE:                 ,090
#RANGE:                      ,32°C/10.0(K/min)/800°C
#SEGMENT:                    ,S1/1
#SEG. 1:                     ,32°C/10.0(K/min)/800°C

##Temp./°C,Time/min,Mass loss/mg
 31.50900, 0.00000,-1.310501e-003
 31.50900, 0.05167,-4.828101e-003
 31.56600, 0.10333,-6.708247e-003
 31.88600, 0.15500,-6.092972e-003
 32.29100, 0.20667,-6.147463e-003
 32.66500, 0.25833,-7.942684e-003
 33.04300, 0.31000,-9.813859e-003
 33.47400, 0.36167,-1.200501e-002
 33.95100, 0.41333,-1.399741e-002
 34.45300, 0.46500,-1.604450e-002
 34.97800, 0.51667,-1.815885e-002
 35.53400, 0.56833,-2.057845e-002
 36.11600, 0.62000,-2.373071e-002
 36.71800, 0.67167,-2.711824e-002
 37.33700, 0.72333,-3.122716e-002
 37.97200, 0.77500,-3.505232e-002
 38.61400, 0.82667,-3.918558e-002
 39.26200, 0.87833,-4.263273e-002
 39.91800, 0.93000,-4.672241e-002
 40.57400, 0.98167,-5.054019e-002
 41.22600, 1.03333,-5.497354e-002
 41.87600, 1.08500,-5.975302e-002
 42.52000, 1.13667,-6.406587e-002
 43.15800, 1.18833,-6.925966e-002
 43.78900, 1.24000,-7.462499e-002
 44.41000, 1.29167,-8.013214e-002
 45.01700, 1.34333,-8.550434e-002
 45.61600, 1.39500,-9.145570e-002
 46.20800, 1.44667,-9.762895e-002
 46.78600, 1.49833,      -0.10394
 47.35500, 1.55000,      -0.11031
 47.91400, 1.60167,      -0.11666
 48.46400, 1.65333,      -0.12322
 49.00200, 1.70500,      -0.13006
 49.53600, 1.75667,      -0.13743
 50.06100, 1.80833,      -0.14462
 50.58000, 1.86000,      -0.15221
 51.09200, 1.91167,      -0.15932
 51.59700, 1.96333,      -0.16741
 52.09900, 2.01500,      -0.17536
 52.59900, 2.06667,      -0.18282
 53.09700, 2.11833,      -0.19069
 53.59400, 2.17000,      -0.19837
 54.09100, 2.22167,      -0.20669
 54.58500, 2.27333,      -0.21470
 55.08200, 2.32500,      -0.22363
 55.58000, 2.37667,      -0.23200
 56.07400, 2.42833,      -0.24051
 56.57200, 2.48000,      -0.24956
 57.07500, 2.53167,      -0.25782
 57.57700, 2.58333,      -0.26699
 58.07800, 2.63500,      -0.27554
 58.58100, 2.68667,      -0.28468
 59.09000, 2.73833,      -0.29336
 59.59900, 2.79000,      -0.30272
 60.10800, 2.84167,      -0.31188
 60.62300, 2.89333,      -0.32156
 61.13700, 2.94500,      -0.33142
 61.64900, 2.99667,      -0.34085
 62.16200, 3.04833,      -0.35089
 62.68300, 3.10000,      -0.36046
 63.20100, 3.15167,      -0.37051
 63.72100, 3.20333,      -0.38014
 64.24100, 3.25500,      -0.39019
 64.76100, 3.30667,      -0.39973
 65.28600, 3.35833,      -0.41037
 65.80500, 3.41000,      -0.42089
 66.33000, 3.46167,      -0.43053
 66.85000, 3.51333,      -0.44093
 67.37400, 3.56500,      -0.45027
 67.89800, 3.61667,      -0.46040
 68.42200, 3.66833,      -0.46991
 68.94400, 3.72000,      -0.48030
 69.46400, 3.77167,      -0.49080
 69.98500, 3.82333,      -0.50042
 70.50800, 3.87500,      -0.51082
 71.02500, 3.92667,      -0.52031
 71.54900, 3.97833,      -0.53043
 72.06800, 4.03000,      -0.53963
 72.58900, 4.08167,      -0.54955
 73.10500, 4.13333,      -0.55884
 73.62400, 4.18500,      -0.56814
 74.14400, 4.23667,      -0.57745
 74.66200, 4.28833,      -0.58694
 75.18000, 4.34000,      -0.59634
 75.69700, 4.39167,      -0.60493
 76.21500, 4.44333,      -0.61393
 76.73400, 4.49500,      -0.62245
 77.25300, 4.54667,      -0.63116
 77.76900, 4.59833,      -0.63944
 78.28700, 4.65000,      -0.64835
 78.80600, 4.70167,      -0.65585
 79.32400, 4.75333,      -0.66436
 79.84200, 4.80500,      -0.67286
 80.35700, 4.85667,      -0.68044
 80.87400, 4.90833,      -0.68863
 81.39600, 4.96000,      -0.69616
 81.91200, 5.01167,      -0.70404
 82.42800, 5.06333,      -0.71114
 82.94700, 5.11500,      -0.71844
 83.46400, 5.16667,      -0.72544
 83.98300, 5.21833,      -0.73263
 84.49900, 5.27000,      -0.73963
 85.01800, 5.32167,      -0.74612
 85.53200, 5.37333,      -0.75340
 86.05000, 5.42500,      -0.75961
 86.56500, 5.47667,      -0.76630
 87.08400, 5.52833,      -0.77230
 87.60500, 5.58000,      -0.77851
 88.12100, 5.63167,      -0.78440
 88.64000, 5.68333,      -0.79049
 89.16000, 5.73500,      -0.79640
 89.67500, 5.78667,      -0.80188
 90.19500, 5.83833,      -0.80748
 90.70800, 5.89000,      -0.81275
 91.22800, 5.94167,      -0.81795
 91.74600, 5.99333,      -0.82294
 92.26200, 6.04500,      -0.82794
 92.78200, 6.09667,      -0.83274
 93.29500, 6.14833,      -0.83771
 93.81700, 6.20000,      -0.84241
 94.33500, 6.25167,      -0.84652
 94.85200, 6.30333,      -0.85090
 95.36900, 6.35500,      -0.85499
 95.88600, 6.40667,      -0.85937
 96.40200, 6.45833,      -0.86317
 96.91800, 6.51000,      -0.86734
 97.43600, 6.56167,      -0.87124
 97.95300, 6.61333,      -0.87494
 98.46700, 6.66500,      -0.87823
 98.98300, 6.71667,      -0.88122
 99.50000, 6.76833,      -0.88481
100.014, 6.82000,      -0.88769
100.531, 6.87167,      -0.89071
101.047, 6.92333,      -0.89423
101.56, 6.97500,      -0.89793
102.081, 7.02667,      -0.90126
102.594, 7.07833,      -0.90396
103.111, 7.13000,      -0.90698
103.625, 7.18167,      -0.90938
104.138, 7.23333,      -0.91147
104.656, 7.28500,      -0.91370
105.173, 7.33667,      -0.91590
105.693, 7.38833,      -0.91832
106.207, 7.44000,      -0.92101
106.723, 7.49167,      -0.92341
107.241, 7.54333,      -0.92542
107.755, 7.59500,      -0.92781
108.273, 7.64667,      -0.92980
108.786, 7.69833,      -0.93199
109.302, 7.75000,      -0.93369
109.821, 7.80167,      -0.93579
110.335, 7.85333,      -0.93738
110.853, 7.90500,      -0.93878
111.37, 7.95667,      -0.94016
111.883, 8.00833,      -0.94124
112.403, 8.06000,      -0.94264
112.917, 8.11167,      -0.94372
113.433, 8.16333,      -0.94521
113.945, 8.21500,      -0.94668
114.462, 8.26667,      -0.94807
114.981, 8.31833,      -0.94936
115.498, 8.37000,      -0.95075
116.015, 8.42167,      -0.95223
116.528, 8.47333,      -0.95380
117.046, 8.52500,      -0.95518
117.563, 8.57667,      -0.95616
118.08, 8.62833,      -0.95754
118.595, 8.68000,      -0.95891
119.108, 8.73167,      -0.96017
119.622, 8.78333,      -0.96153
120.139, 8.83500,      -0.96291
120.655, 8.88667,      -0.96398
121.173, 8.93833,      -0.96536
121.69, 8.99000,      -0.96674
122.21, 9.04167,      -0.96801
122.725, 9.09333,      -0.96928
123.241, 9.14500,      -0.97024
123.759, 9.19667,      -0.97140
124.274, 9.24833,      -0.97277
124.791, 9.30000,      -0.97422
125.305, 9.35167,      -0.97528
125.825, 9.40333,      -0.97665
126.339, 9.45500,      -0.97801
126.857, 9.50667,      -0.97937
127.369, 9.55833,      -0.98061
127.89, 9.61000,      -0.98189
128.405, 9.66167,      -0.98325
128.919, 9.71333,      -0.98469
129.438, 9.76500,      -0.98616
129.952, 9.81667,      -0.98771
130.471, 9.86833,      -0.98927
130.988, 9.92000,      -0.99153
131.505, 9.97167,      -0.99368
132.022,10.02333,      -0.99603
132.538,10.07500,      -0.99768
133.052,10.12667,      -0.99902
133.567,10.17833,      -1.00007
134.086,10.23000,      -1.00153
134.602,10.28167,      -1.00318
135.12,10.33333,      -1.00523
135.64,10.38500,      -1.00738
136.156,10.43667,      -1.00953
136.673,10.48833,      -1.01117
137.193,10.54000,      -1.01352
137.707,10.59167,      -1.01586
138.228,10.64333,      -1.01780
138.744,10.69500,      -1.01994
139.257,10.74667,      -1.02268
139.775,10.79833,      -1.02442
140.292,10.85000,      -1.02616
140.808,10.90167,      -1.02811
141.328,10.95333,      -1.03026
141.843,11.00500,      -1.03239
142.362,11.05667,      -1.03442
142.878,11.10833,      -1.03677
143.398,11.16000,      -1.03931
143.915,11.21167,      -1.04165
144.435,11.26333,      -1.04409
144.951,11.31500,      -1.04722
145.466,11.36667,      -1.05045
145.981,11.41833,      -1.05388
146.501,11.47000,      -1.05713
147.013,11.52167,      -1.06095
147.53,11.57333,      -1.06419
148.046,11.62500,      -1.06722
148.565,11.67667,      -1.07026
149.08,11.72833,      -1.07279
149.6,11.78000,      -1.07623
150.115,11.83167,      -1.08005
150.63,11.88333,      -1.08378
151.145,11.93500,      -1.08721
151.663,11.98667,      -1.09115
152.18,12.03833,      -1.09508
152.698,12.09000,      -1.09882
153.215,12.14167,      -1.10325
153.731,12.19333,      -1.10738
154.242,12.24500,      -1.11160
154.761,12.29667,      -1.11573
155.279,12.34833,      -1.11997
155.797,12.40000,      -1.12410
156.314,12.45167,      -1.12833
156.834,12.50333,      -1.13246
157.349,12.55500,      -1.13638
157.866,12.60667,      -1.14102
158.379,12.65833,      -1.14493
158.897,12.71000,      -1.14946
159.415,12.76167,      -1.15429
159.931,12.81333,      -1.15972
160.448,12.86500,      -1.16464
160.962,12.91667,      -1.16957
161.479,12.96833,      -1.17450
161.993,13.02000,      -1.17922
162.509,13.07167,      -1.18445
163.025,13.12333,      -1.18958
163.543,13.17500,      -1.19470
164.055,13.22667,      -1.19962
164.572,13.27833,      -1.20506
165.09,13.33000,      -1.20989
165.607,13.38167,      -1.21532
166.127,13.43333,      -1.22024
166.643,13.48500,      -1.22527
167.159,13.53667,      -1.23050
167.675,13.58833,      -1.23552
168.195,13.64000,      -1.24095
168.714,13.69167,      -1.24588
169.232,13.74333,      -1.25120
169.747,13.79500,      -1.25613
170.264,13.84667,      -1.26125
170.78,13.89833,      -1.26668
171.299,13.95000,      -1.27200
171.813,14.00167,      -1.27703
172.33,14.05333,      -1.28185
172.847,14.10500,      -1.28688
173.363,14.15667,      -1.29211
173.881,14.20833,      -1.29753
174.398,14.26000,      -1.30276
174.914,14.31167,      -1.30839
175.43,14.36333,      -1.31312
175.948,14.41500,      -1.31844
176.467,14.46667,      -1.32377
176.982,14.51833,      -1.32880
177.5,14.57000,      -1.33413
178.019,14.62167,      -1.33906
178.535,14.67333,      -1.34458
179.057,14.72500,      -1.34982
179.571,14.77667,      -1.35554
180.087,14.82833,      -1.36086
180.602,14.88000,      -1.36669
181.113,14.93167,      -1.37231
181.632,14.98333,      -1.37745
182.146,15.03500,      -1.38298
182.661,15.08667,      -1.38791
183.181,15.13833,      -1.39294
183.7,15.19000,      -1.39778
184.215,15.24167,      -1.40341
184.734,15.29333,      -1.40914
185.247,15.34500,      -1.41517
185.764,15.39667,      -1.42170
186.284,15.44833,      -1.42713
186.801,15.50000,      -1.43327
187.316,15.55167,      -1.43880
187.834,15.60333,      -1.44513
188.351,15.65500,      -1.45127
188.868,15.70667,      -1.45750
189.387,15.75833,      -1.46344
189.906,15.81000,      -1.46987
190.422,15.86167,      -1.47641
190.936,15.91333,      -1.48234
191.454,15.96500,      -1.48818
191.969,16.01667,      -1.49361
192.488,16.06833,      -1.49985
193.006,16.12000,      -1.50599
193.523,16.17167,      -1.51293
194.039,16.22333,      -1.51937
194.558,16.27500,      -1.52611
195.075,16.32667,      -1.53325
195.591,16.37833,      -1.53969
196.107,16.43000,      -1.54712
196.624,16.48167,      -1.55387
197.139,16.53333,      -1.56111
197.653,16.58500,      -1.56805
198.17,16.63667,      -1.57519
198.686,16.68833,      -1.58163
199.204,16.74000,      -1.58848
199.722,16.79167,      -1.59503
200.24,16.84333,      -1.60147
200.756,16.89500,      -1.60822
201.274,16.94667,      -1.61487
201.79,16.99833,      -1.62211
202.307,17.05000,      -1.62956
202.823,17.10167,      -1.63700
203.34,17.15333,      -1.64335
203.854,17.20500,      -1.65029
204.37,17.25667,      -1.65694
204.886,17.30833,      -1.66429
205.402,17.36000,      -1.67183
205.917,17.41167,      -1.67958
206.435,17.46333,      -1.68733
206.952,17.51500,      -1.69458
207.468,17.56667,      -1.70293
207.983,17.61833,      -1.71067
208.501,17.67000,      -1.71882
209.018,17.72167,      -1.72687
209.535,17.77333,      -1.73382
210.052,17.82500,      -1.74137
210.569,17.87667,      -1.74882
211.085,17.92833,      -1.75727
211.603,17.98000,      -1.76552
212.122,18.03167,      -1.77416
212.636,18.08333,      -1.78151
213.149,18.13500,      -1.78996
213.666,18.18667,      -1.79831
214.18,18.23833,      -1.80645
214.699,18.29000,      -1.81501
215.216,18.34167,      -1.82366
215.729,18.39333,      -1.83270
216.248,18.44500,      -1.84126
216.763,18.49667,      -1.85021
217.28,18.54833,      -1.85925
217.797,18.60000,      -1.86791
218.315,18.65167,      -1.87696
218.832,18.70333,      -1.88601
219.354,18.75500,      -1.89576
219.868,18.80667,      -1.90501
220.39,18.85833,      -1.91526
220.905,18.91000,      -1.92581
221.42,18.96167,      -1.93626
221.938,19.01333,      -1.94711
222.453,19.06500,      -1.95726
222.969,19.11667,      -1.96871
223.486,19.16833,      -1.97936
224.003,19.22000,      -1.99091
224.521,19.27167,      -2.00136
225.039,19.32333,      -2.01251
225.554,19.37500,      -2.02336
226.068,19.42667,      -2.03511
226.586,19.47833,      -2.04737
227.102,19.53000,      -2.05952
227.618,19.58167,      -2.07267
228.138,19.63333,      -2.08502
228.653,19.68500,      -2.09797
229.167,19.73667,      -2.11262
229.686,19.78833,      -2.13588
230.2,19.84000,      -2.14543
230.719,19.89167,      -2.15638
231.234,19.94333,      -2.16893
231.752,19.99500,      -2.19128
232.269,20.04667,      -2.20213
232.787,20.09833,      -2.21349
233.304,20.15000,      -2.22574
233.821,20.20167,      -2.25049
234.336,20.25333,      -2.26184
234.852,20.30500,      -2.27379
235.368,20.35667,      -2.28944
235.883,20.40833,      -2.31770
236.401,20.46000,      -2.33445
236.918,20.51167,      -2.35230
237.436,20.56333,      -2.36935
237.952,20.61500,      -2.38111
238.466,20.66667,      -2.39746
238.983,20.71833,      -2.42191
239.5,20.77000,      -2.44036
240.019,20.82167,      -2.45962
240.533,20.87333,      -2.47777
241.049,20.92500,      -2.49802
241.56,20.97667,      -2.51847
242.079,21.02833,      -2.53822
242.596,21.08000,      -2.55818
243.113,21.13167,      -2.57713
243.626,21.18333,      -2.59808
244.146,21.23500,      -2.61803
244.662,21.28667,      -2.64039
245.181,21.33833,      -2.66244
245.7,21.39000,      -2.68239
246.216,21.44167,      -2.70524
246.733,21.49333,      -2.72749
247.249,21.54500,      -2.75075
247.765,21.59667,      -2.77310
248.282,21.64833,      -2.79715
248.8,21.70000,      -2.81950
249.316,21.75167,      -2.84375
249.834,21.80333,      -2.86851
250.351,21.85500,      -2.89116
250.866,21.90667,      -2.91561
251.384,21.95833,      -2.93836
251.901,22.01000,      -2.96391
252.42,22.06167,      -2.98767
252.934,22.11333,      -3.01442
253.449,22.16500,      -3.04157
253.964,22.21667,      -3.06712
254.476,22.26833,      -3.09407
254.992,22.32000,      -3.11742
255.509,22.37167,      -3.14288
256.026,22.42333,      -3.16703
256.545,22.47500,      -3.19278
257.065,22.52667,      -3.21723
257.583,22.57833,      -3.24418
258.098,22.63000,      -3.26973
258.614,22.68167,      -3.29869
259.131,22.73333,      -3.32764
259.646,22.78500,      -3.35359
260.16,22.83667,      -3.38044
260.677,22.88833,      -3.40519
261.193,22.94000,      -3.43264
261.713,22.99167,      -3.45829
262.226,23.04333,      -3.48604
262.743,23.09500,      -3.51129
263.262,23.14667,      -3.53884
263.778,23.19833,      -3.56630
264.294,23.25000,      -3.59305
264.811,23.30167,      -3.62120
265.325,23.35333,      -3.64695
265.841,23.40500,      -3.67490
266.357,23.45667,      -3.70095
266.875,23.50833,      -3.72730
267.395,23.56000,      -3.75255
267.91,23.61167,      -3.78030
268.429,23.66333,      -3.80775
268.941,23.71500,      -3.83510
269.46,23.76667,      -3.86365
269.974,23.81833,      -3.88920
270.491,23.87000,      -3.91664
271.004,23.92167,      -3.94249
271.524,23.97333,      -3.97094
272.032,24.02500,      -3.99709
272.548,24.07667,      -4.02354
273.066,24.12833,      -4.05039
273.581,24.18000,      -4.07594
274.099,24.23167,      -4.10329
274.618,24.28333,      -4.12884
275.133,24.33500,      -4.15599
275.649,24.38667,      -4.18153
276.166,24.43833,      -4.20918
276.682,24.49000,      -4.23483
277.197,24.54167,      -4.26248
277.712,24.59333,      -4.29023
278.226,24.64500,      -4.31527
278.745,24.69667,      -4.34292
279.258,24.74833,      -4.36867
279.776,24.80000,      -4.39562
280.293,24.85167,      -4.42026
280.811,24.90333,      -4.44791
281.328,24.95500,      -4.47356
281.844,25.00667,      -4.50040
282.36,25.05833,      -4.52745
282.877,25.11000,      -4.55280
283.394,25.16167,      -4.57984
283.909,25.21333,      -4.60479
284.427,25.26500,      -4.63233
284.943,25.31667,      -4.65868
285.46,25.36833,      -4.68613
285.978,25.42000,      -4.71107
286.492,25.47167,      -4.73832
287.01,25.52333,      -4.76606
287.524,25.57500,      -4.79201
288.042,25.62667,      -4.81985
288.559,25.67833,      -4.84609
289.076,25.73000,      -4.87354
289.597,25.78167,      -4.89948
290.117,25.83333,      -4.92713
290.634,25.88500,      -4.95317
291.149,25.93667,      -4.98141
291.665,25.98833,      -5.00906
292.194,26.04000,      -5.03500
292.705,26.09167,      -5.06334
293.215,26.14333,      -5.09009
293.733,26.19500,      -5.11913
294.247,26.24667,      -5.14617
294.761,26.29833,      -5.17501
295.276,26.35000,      -5.20246
295.79,26.40167,      -5.23150
296.309,26.45333,      -5.26154
296.823,26.50500,      -5.28928
297.34,26.55667,      -5.31922
297.859,26.60833,      -5.34836
298.373,26.66000,      -5.37950
298.887,26.71167,      -5.40795
299.402,26.76333,      -5.43889
299.916,26.81500,      -5.46843
300.436,26.86667,      -5.49977
300.955,26.91833,      -5.53221
301.473,26.97000,      -5.56244
301.988,27.02167,      -5.59608
302.504,27.07333,      -5.62673
303.025,27.12500,      -5.66146
303.538,27.17667,      -5.69341
304.056,27.22833,      -5.72815
304.573,27.28000,      -5.76189
305.088,27.33167,      -5.79873
305.604,27.38333,      -5.83537
306.12,27.43500,      -5.87071
306.635,27.48667,      -5.90865
307.152,27.53833,      -5.94479
307.668,27.59000,      -5.98423
308.184,27.64167,      -6.02167
308.705,27.69333,      -6.06291
309.221,27.74500,      -6.10245
309.742,27.79667,      -6.14529
310.259,27.84833,      -6.18873
310.777,27.90000,      -6.23117
311.293,27.95167,      -6.27781
311.81,28.00333,      -6.32225
312.328,28.05500,      -6.37069
312.844,28.10667,      -6.41653
313.357,28.15833,      -6.46597
313.877,28.21000,      -6.51381
314.396,28.26167,      -6.56685
314.913,28.31333,      -6.62119
315.429,28.36500,      -6.67303
315.945,28.41667,      -6.73017
316.461,28.46833,      -6.78501
316.98,28.52000,      -6.84445
317.497,28.57167,      -6.90179
318.016,28.62333,      -6.96423
318.532,28.67500,      -7.02367
319.052,28.72667,      -7.08771
319.572,28.77833,      -7.15514
320.085,28.83000,      -7.21909
320.602,28.88167,      -7.28753
321.117,28.93333,      -7.35237
321.632,28.98500,      -7.42231
322.147,29.03667,      -7.48905
322.664,29.08833,      -7.55919
323.181,29.14000,      -7.63083
323.697,29.19167,      -7.69777
324.214,29.24333,      -7.76881
324.729,29.29500,      -7.83565
325.247,29.34667,      -7.90768
325.76,29.39833,      -7.97453
326.275,29.45000,      -8.04427
326.79,29.50167,      -8.10741
327.306,29.55333,      -8.17444
327.823,29.60500,      -8.23818
328.341,29.65667,      -8.29822
328.856,29.70833,      -8.36016
329.373,29.76000,      -8.41550
329.889,29.81167,      -8.47264
330.403,29.86333,      -8.52398
330.916,29.91500,      -8.57582
331.432,29.96667,      -8.62316
331.948,30.01833,      -8.66990
332.46,30.07000,      -8.71524
332.974,30.12167,      -8.75498
333.487,30.17333,      -8.79502
334.004,30.22500,      -8.83016
334.521,30.27667,      -8.86479
335.032,30.32833,      -8.89543
335.548,30.38000,      -8.92767
336.064,30.43167,      -8.95481
336.58,30.48333,      -8.98265
337.095,30.53500,      -9.00919
337.61,30.58667,      -9.03303
338.129,30.63833,      -9.05606
338.643,30.69000,      -9.07740
339.16,30.74167,      -9.09954
339.675,30.79333,      -9.11898
340.194,30.84500,      -9.13891
340.712,30.89667,      -9.15685
341.226,30.94833,      -9.17529
341.745,31.00000,      -9.19303
342.262,31.05167,      -9.20666
342.777,31.10333,      -9.21780
343.294,31.15500,      -9.24084
343.812,31.20667,      -9.25138
344.331,31.25833,      -9.26261
344.847,31.31000,      -9.27605
345.366,31.36167,      -9.29969
345.88,31.41333,      -9.31003
346.402,31.46500,      -9.32166
346.917,31.51667,      -9.33290
347.434,31.56833,      -9.35744
347.948,31.62000,      -9.36597
348.465,31.67167,      -9.37681
348.981,31.72333,      -9.38725
349.498,31.77500,      -9.39968
350.012,31.82667,      -9.41202
350.533,31.87833,      -9.43365
351.049,31.93000,      -9.44499
351.566,31.98167,      -9.45453
352.084,32.03333,      -9.46566
352.597,32.08500,      -9.47680
353.115,32.13667,      -9.48964
353.631,32.18833,      -9.50167
354.143,32.24000,      -9.51391
354.661,32.29167,      -9.52564
355.174,32.34333,      -9.53728
355.691,32.39500,      -9.54901
356.21,32.44667,      -9.56015
356.731,32.49833,      -9.57158
357.246,32.55000,      -9.58301
357.761,32.60167,      -9.59475
358.281,32.65333,      -9.60568
358.8,32.70500,      -9.61762
359.315,32.75667,      -9.62845
359.832,32.80833,      -9.64079
360.351,32.86000,      -9.65222
360.866,32.91167,      -9.66286
361.381,32.96333,      -9.67419
361.898,33.01500,      -9.68442
362.412,33.06667,      -9.69546
362.931,33.11833,      -9.70559
363.445,33.17000,      -9.71722
363.963,33.22167,      -9.72816
364.476,33.27333,      -9.74019
364.993,33.32500,      -9.75222
365.507,33.37667,      -9.76216
366.023,33.42833,      -9.77289
366.539,33.48000,      -9.78282
367.057,33.53167,      -9.79305
367.572,33.58333,      -9.80289
368.088,33.63500,      -9.81332
368.605,33.68667,      -9.82385
369.124,33.73833,      -9.83448
369.641,33.79000,      -9.84501
370.157,33.84167,      -9.85494
370.675,33.89333,      -9.86557
371.192,33.94500,      -9.87580
371.709,33.99667,      -9.88634
372.224,34.04833,      -9.89657
372.74,34.10000,      -9.90670
373.255,34.15167,      -9.91613
373.77,34.20333,      -9.92646
374.288,34.25500,      -9.93649
374.804,34.30667,      -9.94652
375.322,34.35833,      -9.95665
375.839,34.41000,      -9.96618
376.356,34.46167,      -9.97631
376.87,34.51333,      -9.98564
377.384,34.56500,      -9.99647
377.9,34.61667,     -10.00590
378.419,34.66833,     -10.01593
378.933,34.72000,     -10.02636
379.446,34.77167,     -10.03568
379.963,34.82333,     -10.04561
380.479,34.87500,     -10.05474
380.997,34.92667,     -10.06447
381.516,34.97833,     -10.07379
382.035,35.03000,     -10.08342
382.551,35.08167,     -10.09285
383.066,35.13333,     -10.10308
383.582,35.18500,     -10.11321
384.097,35.23667,     -10.12273
384.611,35.28833,     -10.13256
385.129,35.34000,     -10.14188
385.648,35.39167,     -10.15141
386.161,35.44333,     -10.16084
386.678,35.49500,     -10.17167
387.188,35.54667,     -10.18229
387.705,35.59833,     -10.19352
388.218,35.65000,     -10.20365
388.736,35.70167,     -10.21237
389.251,35.75333,     -10.22069
389.77,35.80500,     -10.22842
390.287,35.85667,     -10.23734
390.805,35.90833,     -10.24556
391.322,35.96000,     -10.25539
391.839,36.01167,     -10.26441
392.354,36.06333,     -10.27424
392.868,36.11500,     -10.28386
393.384,36.16667,     -10.29269
393.9,36.21833,     -10.30251
394.418,36.27000,     -10.31103
394.932,36.32167,     -10.32036
395.452,36.37333,     -10.32927
395.965,36.42500,     -10.33820
396.486,36.47667,     -10.34792
397.005,36.52833,     -10.35674
397.521,36.58000,     -10.36616
398.037,36.63167,     -10.37468
398.549,36.68333,     -10.38341
399.067,36.73500,     -10.39223
399.581,36.78667,     -10.40135
400.095,36.83833,     -10.40987
400.615,36.89000,     -10.41929
401.13,36.94167,     -10.42851
401.649,36.99333,     -10.43853
402.163,37.04500,     -10.44795
402.681,37.09667,     -10.45677
403.196,37.14833,     -10.46579
403.715,37.20000,     -10.47381
404.229,37.25167,     -10.48273
404.746,37.30333,     -10.49085
405.263,37.35500,     -10.49977
405.778,37.40667,     -10.50789
406.296,37.45833,     -10.51640
406.813,37.51000,     -10.52522
407.328,37.56167,     -10.53364
407.845,37.61333,     -10.54306
408.36,37.66500,     -10.55148
408.878,37.71667,     -10.56080
409.391,37.76833,     -10.56962
409.909,37.82000,     -10.57823
410.424,37.87167,     -10.58715
410.942,37.92333,     -10.59687
411.455,37.97500,     -10.60539
411.975,38.02667,     -10.61270
412.49,38.07833,     -10.61982
413.011,38.13000,     -10.62714
413.527,38.18167,     -10.63555
414.044,38.23333,     -10.64437
414.562,38.28500,     -10.65289
415.078,38.33667,     -10.66041
415.594,38.38833,     -10.66922
416.11,38.44000,     -10.67804
416.623,38.49167,     -10.68566
417.14,38.54333,     -10.69367
417.661,38.59500,     -10.70189
418.173,38.64667,     -10.71091
418.691,38.69833,     -10.71842
419.208,38.75000,     -10.72664
419.721,38.80167,     -10.73545
420.239,38.85333,     -10.74497
420.754,38.90500,     -10.75339
421.274,38.95667,     -10.75980
421.794,39.00833,     -10.76721
422.311,39.06000,     -10.77503
422.826,39.11167,     -10.78294
423.342,39.16333,     -10.79016
423.856,39.21500,     -10.79778
424.371,39.26667,     -10.80599
424.887,39.31833,     -10.81411
425.4,39.37000,     -10.82252
425.915,39.42167,     -10.82954
426.432,39.47333,     -10.83695
426.946,39.52500,     -10.84476
427.464,39.57667,     -10.85298
427.981,39.62833,     -10.86079
428.496,39.68000,     -10.86880
429.013,39.73167,     -10.87592
429.528,39.78333,     -10.88363
430.044,39.83500,     -10.89175
430.56,39.88667,     -10.89886
431.074,39.93833,     -10.90617
431.591,39.99000,     -10.91278
432.107,40.04167,     -10.92010
432.625,40.09333,     -10.92711
433.142,40.14500,     -10.93482
433.658,40.19667,     -10.94213
434.175,40.24833,     -10.94854
434.692,40.30000,     -10.95566
435.207,40.35167,     -10.96287
435.724,40.40333,     -10.97028
436.239,40.45500,     -10.97749
436.759,40.50667,     -10.98510
437.275,40.55833,     -10.99161
437.792,40.61000,     -10.99823
438.309,40.66167,     -11.00494
438.828,40.71333,     -11.01105
439.341,40.76500,     -11.01826
439.857,40.81667,     -11.02567
440.373,40.86833,     -11.03308
440.886,40.92000,     -11.04010
441.402,40.97167,     -11.04731
441.918,41.02333,     -11.05402
442.435,41.07500,     -11.06083
442.951,41.12667,     -11.06654
443.471,41.17833,     -11.07215
443.987,41.23000,     -11.07885
444.504,41.28167,     -11.08536
445.016,41.33333,     -11.09238
445.534,41.38500,     -11.09919
446.048,41.43667,     -11.10630
446.563,41.48833,     -11.11241
447.08,41.54000,     -11.11931
447.595,41.59167,     -11.12532
448.114,41.64333,     -11.13173
448.632,41.69500,     -11.13864
449.149,41.74667,     -11.14475
449.664,41.79833,     -11.15156
450.181,41.85000,     -11.15707
450.698,41.90167,     -11.16287
451.216,41.95333,     -11.16838
451.73,42.00500,     -11.17409
452.246,42.05667,     -11.18000
452.763,42.10833,     -11.18551
453.278,42.16000,     -11.19102
453.793,42.21167,     -11.19633
454.309,42.26333,     -11.20203
454.826,42.31500,     -11.20814
455.341,42.36667,     -11.21465
455.858,42.41833,     -11.22105
456.37,42.47000,     -11.22766
456.889,42.52167,     -11.23287
457.406,42.57333,     -11.23767
457.922,42.62500,     -11.24248
458.445,42.67667,     -11.24688
458.962,42.72833,     -11.25179
459.479,42.78000,     -11.25669
459.996,42.83167,     -11.26200
460.509,42.88333,     -11.26701
461.027,42.93500,     -11.27262
461.542,42.98667,     -11.27832
462.058,43.03833,     -11.28343
462.575,43.09000,     -11.28873
463.091,43.14167,     -11.29404
463.606,43.19333,     -11.29935
464.126,43.24500,     -11.30395
464.64,43.29667,     -11.30895
465.158,43.34833,     -11.31386
465.674,43.40000,     -11.31917
466.188,43.45167,     -11.32487
466.704,43.50333,     -11.32978
467.216,43.55500,     -11.33548
467.73,43.60667,     -11.33989
468.247,43.65833,     -11.34369
468.765,43.71000,     -11.34759
469.281,43.76167,     -11.35230
469.796,43.81333,     -11.35620
470.314,43.86500,     -11.36070
470.833,43.91667,     -11.36551
471.348,43.96833,     -11.37051
471.865,44.02000,     -11.37491
472.379,44.07167,     -11.37922
472.894,44.12333,     -11.38382
473.406,44.17500,     -11.38813
473.924,44.22667,     -11.39323
474.44,44.27833,     -11.39713
474.958,44.33000,     -11.40103
475.474,44.38167,     -11.40423
475.989,44.43333,     -11.40734
476.509,44.48500,     -11.41174
477.026,44.53667,     -11.41644
477.541,44.58833,     -11.42094
478.058,44.64000,     -11.42535
478.57,44.69167,     -11.43005
479.087,44.74333,     -11.43375
479.602,44.79500,     -11.43805
480.121,44.84667,     -11.44195
480.637,44.89833,     -11.44535
481.154,44.95000,     -11.44926
481.668,45.00167,     -11.45306
482.183,45.05333,     -11.45786
482.702,45.10500,     -11.46126
483.216,45.15667,     -11.46466
483.734,45.20833,     -11.46886
484.247,45.26000,     -11.47346
484.763,45.31167,     -11.47766
485.279,45.36333,     -11.48176
485.798,45.41500,     -11.48476
486.312,45.46667,     -11.48776
486.831,45.51833,     -11.49116
487.346,45.57000,     -11.49406
487.862,45.62167,     -11.49736
488.381,45.67333,     -11.50046
488.897,45.72500,     -11.50426
489.41,45.77667,     -11.50856
489.928,45.82833,     -11.51286
490.442,45.88000,     -11.51696
490.958,45.93167,     -11.52046
491.474,45.98333,     -11.52426
491.991,46.03500,     -11.52775
492.509,46.08667,     -11.53085
493.029,46.13833,     -11.53374
493.547,46.19000,     -11.53684
494.063,46.24167,     -11.54034
494.579,46.29333,     -11.54454
495.091,46.34500,     -11.54895
495.609,46.39667,     -11.55254
496.121,46.44833,     -11.55564
496.637,46.50000,     -11.55774
497.156,46.55167,     -11.56073
497.671,46.60333,     -11.56383
498.19,46.65500,     -11.56683
498.704,46.70667,     -11.56872
499.221,46.75833,     -11.57112
499.733,46.81000,     -11.57372
500.251,46.86167,     -11.57662
500.767,46.91333,     -11.57941
501.281,46.96500,     -11.58191
501.796,47.01667,     -11.58501
502.31,47.06833,     -11.58821
502.826,47.12000,     -11.59160
503.343,47.17167,     -11.59490
503.857,47.22333,     -11.59829
504.377,47.27500,     -11.60099
504.896,47.32667,     -11.60338
505.413,47.37833,     -11.60607
505.927,47.43000,     -11.60878
506.444,47.48167,     -11.61117
506.963,47.53333,     -11.61326
507.48,47.58500,     -11.61586
507.999,47.63667,     -11.61835
508.515,47.68833,     -11.62075
509.032,47.74000,     -11.62335
509.549,47.79167,     -11.62654
510.065,47.84333,     -11.62994
510.579,47.89500,     -11.63254
511.096,47.94667,     -11.63493
511.611,47.99833,     -11.63703
512.124,48.05000,     -11.63962
512.637,48.10167,     -11.64252
513.15,48.15333,     -11.64502
513.667,48.20500,     -11.64791
514.182,48.25667,     -11.65050
514.697,48.30833,     -11.65310
515.217,48.36000,     -11.65549
515.733,48.41167,     -11.65788
516.25,48.46333,     -11.66007
516.769,48.51500,     -11.66167
517.286,48.56667,     -11.66386
517.804,48.61833,     -11.66596
518.323,48.67000,     -11.66865
518.836,48.72167,     -11.67124
519.35,48.77333,     -11.67354
519.867,48.82500,     -11.67613
520.381,48.87667,     -11.67903
520.894,48.92833,     -11.68163
521.41,48.98000,     -11.68452
521.928,49.03167,     -11.68701
522.443,49.08333,     -11.68890
522.961,49.13500,     -11.69069
523.477,49.18667,     -11.69259
523.993,49.23833,     -11.69468
524.51,49.29000,     -11.69667
525.025,49.34167,     -11.69876
525.541,49.39333,     -11.70036
526.058,49.44500,     -11.70265
526.576,49.49667,     -11.70494
527.089,49.54833,     -11.70694
527.607,49.60000,     -11.70923
528.123,49.65167,     -11.71132
528.64,49.70333,     -11.71331
529.158,49.75500,     -11.71550
529.673,49.80667,     -11.71749
530.188,49.85833,     -11.71979
530.702,49.91000,     -11.72228
531.217,49.96167,     -11.72477
531.738,50.01333,     -11.72656
532.252,50.06500,     -11.72885
532.774,50.11667,     -11.73084
533.291,50.16833,     -11.73273
533.809,50.22000,     -11.73412
534.326,50.27167,     -11.73631
534.841,50.32333,     -11.73880
535.356,50.37500,     -11.74070
535.868,50.42667,     -11.74269
536.387,50.47833,     -11.74518
536.901,50.53000,     -11.74747
537.416,50.58167,     -11.74926
537.932,50.63333,     -11.75155
538.447,50.68500,     -11.75364
538.963,50.73667,     -11.75583
539.477,50.78833,     -11.75772
539.995,50.84000,     -11.75941
540.51,50.89167,     -11.76070
541.025,50.94333,     -11.76199
541.541,50.99500,     -11.76357
542.056,51.04667,     -11.76487
542.574,51.09833,     -11.76635
543.093,51.15000,     -11.76794
543.61,51.20167,     -11.76993
544.128,51.25333,     -11.77231
544.643,51.30500,     -11.77520
545.16,51.35667,     -11.77769
545.674,51.40833,     -11.77968
546.189,51.46000,     -11.78107
546.708,51.51167,     -11.78196
547.223,51.56333,     -11.78305
547.736,51.61500,     -11.78394
548.259,51.66667,     -11.78512
548.776,51.71833,     -11.78681
549.289,51.77000,     -11.78880
549.804,51.82167,     -11.79148
550.319,51.87333,     -11.79417
550.835,51.92500,     -11.79686
551.351,51.97667,     -11.79844
551.868,52.02833,     -11.79983
552.387,52.08000,     -11.80121
552.905,52.13167,     -11.80250
553.42,52.18333,     -11.80389
553.936,52.23500,     -11.80527
554.451,52.28667,     -11.80766
554.968,52.33833,     -11.80985
555.483,52.39000,     -11.81243
556,52.44167,     -11.81472
556.516,52.49333,     -11.81620
557.036,52.54500,     -11.81739
557.555,52.59667,     -11.81797
558.075,52.64833,     -11.81915
558.591,52.70000,     -11.82024
559.109,52.75167,     -11.82172
559.627,52.80333,     -11.82311
560.138,52.85500,     -11.82490
560.659,52.90667,     -11.82728
561.173,52.95833,     -11.82977
561.688,53.01000,     -11.83215
562.202,53.06167,     -11.83394
562.718,53.11333,     -11.83512
563.235,53.16500,     -11.83630
563.756,53.21667,     -11.83768
564.273,53.26833,     -11.83896
564.79,53.32000,     -11.84035
565.304,53.37167,     -11.84203
565.821,53.42333,     -11.84422
566.336,53.47500,     -11.84610
566.852,53.52667,     -11.84738
567.368,53.57833,     -11.84836
567.884,53.63000,     -11.84955
568.4,53.68167,     -11.85063
568.917,53.73333,     -11.85201
569.433,53.78500,     -11.85439
569.944,53.83667,     -11.85698
570.46,53.88833,     -11.85946
570.976,53.94000,     -11.86194
571.49,53.99167,     -11.86442
572.008,54.04333,     -11.86700
572.526,54.09500,     -11.86798
573.044,54.14667,     -11.86856
573.563,54.19833,     -11.86893
574.083,54.25000,     -11.86961
574.601,54.30167,     -11.87069
575.119,54.35333,     -11.87207
575.633,54.40500,     -11.87336
576.147,54.45667,     -11.87504
576.661,54.50833,     -11.87742
577.178,54.56000,     -11.87990
577.693,54.61167,     -11.88228
578.21,54.66333,     -11.88356
578.728,54.71500,     -11.88443
579.247,54.76667,     -11.88531
579.765,54.81833,     -11.88619
580.283,54.87000,     -11.88757
580.801,54.92167,     -11.88894
581.317,54.97333,     -11.89102
581.833,55.02500,     -11.89320
582.345,55.07667,     -11.89518
582.864,55.12833,     -11.89646
583.38,55.18000,     -11.89764
583.898,55.23167,     -11.89901
584.412,55.28333,     -11.90029
584.931,55.33500,     -11.90167
585.446,55.38667,     -11.90294
585.958,55.43833,     -11.90423
586.475,55.49000,     -11.90560
586.992,55.54167,     -11.90717
587.511,55.59333,     -11.90935
588.031,55.64500,     -11.91172
588.548,55.69667,     -11.91320
589.064,55.74833,     -11.91417
589.584,55.80000,     -11.91435
590.099,55.85167,     -11.91542
590.616,55.90333,     -11.91660
591.133,55.95500,     -11.91797
591.65,56.00667,     -11.91915
592.166,56.05833,     -11.92032
592.68,56.11000,     -11.92130
593.198,56.16167,     -11.92247
593.715,56.21333,     -11.92395
594.235,56.26500,     -11.92532
594.751,56.31667,     -11.92669
595.267,56.36833,     -11.92796
595.781,56.42000,     -11.92964
596.296,56.47167,     -11.93232
596.811,56.52333,     -11.93459
597.329,56.57500,     -11.93576
597.844,56.62667,     -11.93663
598.363,56.67833,     -11.93790
598.882,56.73000,     -11.93907
599.396,56.78167,     -11.94025
599.913,56.83333,     -11.94152
600.431,56.88500,     -11.94279
600.949,56.93667,     -11.94406
601.461,56.98833,     -11.94503
601.978,57.04000,     -11.94630
602.495,57.09167,     -11.94747
603.014,57.14333,     -11.94834
603.531,57.19500,     -11.94901
604.045,57.24667,     -11.95048
604.561,57.29833,     -11.95185
605.078,57.35000,     -11.95302
605.592,57.40167,     -11.95440
606.108,57.45333,     -11.95556
606.624,57.50500,     -11.95693
607.141,57.55667,     -11.95830
607.661,57.60833,     -11.95957
608.177,57.66000,     -11.96054
608.694,57.71167,     -11.96170
609.21,57.76333,     -11.96277
609.726,57.81500,     -11.96404
610.242,57.86667,     -11.96541
610.757,57.91833,     -11.96628
611.272,57.97000,     -11.96745
611.787,58.02167,     -11.96852
612.306,58.07333,     -11.96938
612.826,58.12500,     -11.97005
613.344,58.17667,     -11.97111
613.861,58.22833,     -11.97238
614.375,58.28000,     -11.97395
614.891,58.33167,     -11.97622
615.404,58.38333,     -11.97839
615.916,58.43500,     -11.98036
616.43,58.48667,     -11.98172
616.947,58.53833,     -11.98249
617.463,58.59000,     -11.98315
617.982,58.64167,     -11.98401
618.504,58.69333,     -11.98477
619.023,58.74500,     -11.98524
619.541,58.79667,     -11.98600
620.058,58.84833,     -11.98727
620.573,58.90000,     -11.98854
621.09,58.95167,     -11.98960
621.609,59.00333,     -11.99077
622.125,59.05500,     -11.99183
622.641,59.10667,     -11.99259
623.158,59.15833,     -11.99356
623.673,59.21000,     -11.99472
624.19,59.26167,     -11.99569
624.703,59.31333,     -11.99665
625.221,59.36500,     -11.99782
625.736,59.41667,     -11.99918
626.251,59.46833,     -12.00064
626.766,59.52000,     -12.00191
627.286,59.57167,     -12.00347
627.801,59.62333,     -12.00563
628.322,59.67500,     -12.00749
628.839,59.72667,     -12.00885
629.357,59.77833,     -12.00991
629.875,59.83000,     -12.01077
630.391,59.88167,     -12.01144
630.906,59.93333,     -12.01180
631.425,59.98500,     -12.01266
631.941,60.03667,     -12.01402
632.456,60.08833,     -12.01519
632.97,60.14000,     -12.01645
633.485,60.19167,     -12.01761
634.003,60.24333,     -12.01847
634.521,60.29500,     -12.01943
635.036,60.34667,     -12.02039
635.552,60.39833,     -12.02155
636.067,60.45000,     -12.02271
636.584,60.50167,     -12.02387
637.1,60.55333,     -12.02483
637.619,60.60500,     -12.02569
638.136,60.65667,     -12.02665
638.65,60.70833,     -12.02751
639.166,60.76000,     -12.02857
639.684,60.81167,     -12.02963
640.201,60.86333,     -12.03059
640.717,60.91500,     -12.03165
641.233,60.96667,     -12.03321
641.747,61.01833,     -12.03517
642.263,61.07000,     -12.03723
642.783,61.12167,     -12.03888
643.299,61.17333,     -12.03994
643.813,61.22500,     -12.04050
644.328,61.27667,     -12.04116
644.846,61.32833,     -12.04212
645.361,61.38000,     -12.04318
645.878,61.43167,     -12.04383
646.397,61.48333,     -12.04439
646.91,61.53500,     -12.04555
647.428,61.58667,     -12.04681
647.945,61.63833,     -12.04796
648.462,61.69000,     -12.04902
648.979,61.74167,     -12.04988
649.495,61.79333,     -12.05093
650.011,61.84500,     -12.05219
650.525,61.89667,     -12.05315
651.041,61.94833,     -12.05431
651.56,62.00000,     -12.05526
652.075,62.05167,     -12.05622
652.592,62.10333,     -12.05687
653.111,62.15500,     -12.05773
653.63,62.20667,     -12.05908
654.146,62.25833,     -12.06064
654.658,62.31000,     -12.06250
655.175,62.36167,     -12.06436
655.686,62.41333,     -12.06601
656.203,62.46500,     -12.06667
656.715,62.51667,     -12.06772
657.235,62.56833,     -12.06868
657.754,62.62000,     -12.06923
658.271,62.67167,     -12.06958
658.79,62.72333,     -12.07014
659.305,62.77500,     -12.07069
659.822,62.82667,     -12.07185
660.34,62.87833,     -12.07300
660.855,62.93000,     -12.07436
661.375,62.98167,     -12.07621
661.889,63.03333,     -12.07807
662.407,63.08500,     -12.07992
662.924,63.13667,     -12.08077
663.441,63.18833,     -12.08143
663.955,63.24000,     -12.08218
664.471,63.29167,     -12.08254
664.99,63.34333,     -12.08289
665.507,63.39500,     -12.08334
666.022,63.44667,     -12.08410
666.539,63.49833,     -12.08515
667.053,63.55000,     -12.08630
667.569,63.60167,     -12.08736
668.085,63.65333,     -12.08881
668.602,63.70500,     -12.08996
669.12,63.75667,     -12.09091
669.635,63.80833,     -12.09217
670.149,63.86000,     -12.09362
670.666,63.91167,     -12.09437
671.182,63.96333,     -12.09493
671.698,64.01500,     -12.09608
672.214,64.06667,     -12.09693
672.732,64.11833,     -12.09768
673.25,64.17000,     -12.09873
673.768,64.22167,     -12.09988
674.284,64.27333,     -12.10083
674.799,64.32500,     -12.10189
675.316,64.37667,     -12.10294
675.834,64.42833,     -12.10409
676.351,64.48000,     -12.10524
676.87,64.53167,     -12.10619
677.387,64.58333,     -12.10714
677.904,64.63500,     -12.10829
678.423,64.68667,     -12.10964
678.937,64.73833,     -12.11070
679.448,64.79000,     -12.11145
679.965,64.84167,     -12.11240
680.481,64.89333,     -12.11345
681,64.94500,     -12.11490
681.516,64.99667,     -12.11615
682.034,65.04833,     -12.11750
682.553,65.10000,     -12.11865
683.071,65.15167,     -12.11970
683.589,65.20333,     -12.12055
684.105,65.25500,     -12.12120
684.62,65.30667,     -12.12205
685.136,65.35833,     -12.12270
685.653,65.41000,     -12.12315
686.165,65.46167,     -12.12390
686.684,65.51333,     -12.12495
687.201,65.56500,     -12.12580
687.719,65.61667,     -12.12685
688.237,65.66833,     -12.12789
688.753,65.72000,     -12.12914
689.268,65.77167,     -12.13069
689.783,65.82333,     -12.13225
690.299,65.87500,     -12.13360
690.813,65.92667,     -12.13455
691.331,65.97833,     -12.13549
691.847,66.03000,     -12.13614
692.365,66.08167,     -12.13649
692.885,66.13333,     -12.13704
693.4,66.18500,     -12.13779
693.917,66.23667,     -12.13884
694.432,66.28833,     -12.14008
694.949,66.34000,     -12.14133
695.467,66.39167,     -12.14218
695.983,66.44333,     -12.14323
696.502,66.49500,     -12.14447
697.018,66.54667,     -12.14532
697.53,66.59833,     -12.14647
698.05,66.65000,     -12.14752
698.564,66.70167,     -12.14917
699.08,66.75333,     -12.15012
699.597,66.80500,     -12.15097
700.115,66.85667,     -12.15201
700.633,66.90833,     -12.15326
701.15,66.96000,     -12.15441
701.668,67.01167,     -12.15535
702.182,67.06333,     -12.15660
702.701,67.11500,     -12.15705
703.218,67.16667,     -12.15800
703.734,67.21833,     -12.15875
704.252,67.27000,     -12.15979
704.769,67.32167,     -12.16064
705.284,67.37333,     -12.16179
705.8,67.42500,     -12.16284
706.317,67.47667,     -12.16398
706.834,67.52833,     -12.16483
707.35,67.58000,     -12.16578
707.868,67.63167,     -12.16692
708.387,67.68333,     -12.16797
708.907,67.73500,     -12.16922
709.423,67.78667,     -12.17056
709.941,67.83833,     -12.17141
710.457,67.89000,     -12.17226
710.972,67.94167,     -12.17281
711.487,67.99333,     -12.17356
712.007,68.04500,     -12.17430
712.526,68.09667,     -12.17505
713.044,68.14833,     -12.17550
713.56,68.20000,     -12.17644
714.078,68.25167,     -12.17739
714.591,68.30333,     -12.17854
715.106,68.35500,     -12.17959
715.62,68.40667,     -12.18034
716.139,68.45833,     -12.18149
716.653,68.51000,     -12.18243
717.171,68.56167,     -12.18338
717.688,68.61333,     -12.18453
718.206,68.66500,     -12.18567
718.72,68.71667,     -12.18692
719.236,68.76833,     -12.18807
719.755,68.82000,     -12.18911
720.274,68.87167,     -12.19036
720.786,68.92333,     -12.19171
721.305,68.97500,     -12.19265
721.82,69.02667,     -12.19360
722.338,69.07833,     -12.19484
722.854,69.13000,     -12.19599
723.371,69.18167,     -12.19684
723.887,69.23333,     -12.19748
724.402,69.28500,     -12.19823
724.923,69.33667,     -12.19917
725.44,69.38833,     -12.20022
725.961,69.44000,     -12.20076
726.477,69.49167,     -12.20141
726.995,69.54333,     -12.20196
727.509,69.59500,     -12.20271
728.023,69.64667,     -12.20355
728.54,69.69833,     -12.20450
729.051,69.75000,     -12.20565
729.565,69.80167,     -12.20679
730.079,69.85333,     -12.20804
730.596,69.90500,     -12.20948
731.111,69.95667,     -12.21173
731.629,70.00833,     -12.21297
732.145,70.06000,     -12.21402
732.665,70.11167,     -12.21456
733.179,70.16333,     -12.21521
733.696,70.21500,     -12.21635
734.209,70.26667,     -12.21720
734.723,70.31833,     -12.21804
735.24,70.37000,     -12.21889
735.757,70.42167,     -12.21963
736.273,70.47333,     -12.22028
736.791,70.52500,     -12.22132
737.306,70.57667,     -12.22226
737.824,70.62833,     -12.22351
738.341,70.68000,     -12.22445
738.861,70.73167,     -12.22519
739.378,70.78333,     -12.22633
739.894,70.83500,     -12.22748
740.414,70.88667,     -12.22832
740.929,70.93833,     -12.22927
741.439,70.99000,     -12.23061
741.958,71.04167,     -12.23195
742.478,71.09333,     -12.23289
742.996,71.14500,     -12.23394
743.51,71.19667,     -12.23478
744.029,71.24833,     -12.23542
744.544,71.30000,     -12.23646
745.065,71.35167,     -12.23700
745.581,71.40333,     -12.23775
746.1,71.45500,     -12.23969
746.616,71.50667,     -12.24163
747.129,71.55833,     -12.24278
747.645,71.61000,     -12.24332
748.16,71.66167,     -12.24406
748.676,71.71333,     -12.24500
749.192,71.76500,     -12.24574
749.712,71.81667,     -12.24648
750.225,71.86833,     -12.24742
750.743,71.92000,     -12.24826
751.262,71.97167,     -12.24920
751.775,72.02333,     -12.25044
752.293,72.07500,     -12.25178
752.809,72.12667,     -12.25262
753.327,72.17833,     -12.25346
753.843,72.23000,     -12.25410
754.357,72.28167,     -12.25474
754.872,72.33333,     -12.25538
755.39,72.38500,     -12.25592
755.909,72.43667,     -12.25676
756.427,72.48833,     -12.25780
756.943,72.54000,     -12.25864
757.457,72.59167,     -12.25928
757.972,72.64333,     -12.25992
758.485,72.69500,     -12.26066
759.005,72.74667,     -12.26079
759.519,72.79833,     -12.26133
760.037,72.85000,     -12.26247
760.55,72.90167,     -12.26421
761.069,72.95333,     -12.26555
761.583,73.00500,     -12.26678
762.097,73.05667,     -12.26822
762.611,73.10833,     -12.27016
763.127,73.16000,     -12.27190
763.642,73.21167,     -12.27333
764.161,73.26333,     -12.27417
764.677,73.31500,     -12.27480
765.197,73.36667,     -12.27484
765.711,73.41833,     -12.27507
766.232,73.47000,     -12.27551
766.75,73.52167,     -12.27584
767.265,73.57333,     -12.27648
767.783,73.62500,     -12.27721
768.297,73.67667,     -12.27765
768.813,73.72833,     -12.27848
769.329,73.78000,     -12.27972
769.844,73.83167,     -12.28085
770.359,73.88333,     -12.28209
770.877,73.93500,     -12.28302
771.389,73.98667,     -12.28376
771.911,74.03833,     -12.28459
772.427,74.09000,     -12.28552
772.947,74.14167,     -12.28665
773.464,74.19333,     -12.28758
773.982,74.24500,     -12.28872
774.496,74.29667,     -12.28965
775.01,74.34833,     -12.29088
775.527,74.40000,     -12.29181
776.044,74.45167,     -12.29255
776.559,74.50333,     -12.29338
777.08,74.55500,     -12.29421
777.598,74.60667,     -12.29514
778.113,74.65833,     -12.29567
778.637,74.71000,     -12.29639
779.154,74.76167,     -12.29732
779.67,74.81333,     -12.29805
780.187,74.86500,     -12.29888
780.702,74.91667,     -12.30012
781.215,74.96833,     -12.30115
781.73,75.02000,     -12.30178
782.246,75.07167,     -12.30251
782.761,75.12333,     -12.30303
783.277,75.17500,     -12.30396
783.798,75.22667,     -12.30459
784.315,75.27833,     -12.30511
784.834,75.33000,     -12.30584
785.346,75.38167,     -12.30667
785.864,75.43333,     -12.30750
786.381,75.48500,     -12.30812
786.897,75.53667,     -12.30875
787.417,75.58833,     -12.30958
787.933,75.64000,     -12.31080
788.448,75.69167,     -12.31243
788.97,75.74333,     -12.31245
789.487,75.79500,     -12.31277
790.002,75.84667,     -12.31410
790.521,75.89833,     -12.31522
791.036,75.95000,     -12.31605
791.551,76.00167,     -12.31698
792.069,76.05333,     -12.31790
792.588,76.10500,     -12.31882
793.104,76.15667,     -12.32004
793.623,76.20833,     -12.32097
794.143,76.26000,     -12.32199
794.663,76.31167,     -12.32251
795.181,76.36333,     -12.32293
795.699,76.41500,     -12.32355
796.214,76.46667,     -12.32447
796.73,76.51833,     -12.32530
797.238,76.57000,     -12.32622
797.751,76.62167,     -12.32745
798.263,76.67333,     -12.32817
798.776,76.72500,     -12.32909
799.29,76.77667,     -12.33031
799.378,76.78500,     -12.33037