File: data-raw/TGA/E_TGA.csv
#EXPORTTYPE:                 ,DATA SINGLE
#FILE:                       ,E.ngb-st9
#FORMAT:                     ,NETZSCH5
#FTYPE:                      ,ANSI
#IDENTITY:                   ,Saras
#DECIMAL:                    ,POINT
#SEPARATOR:                  ,COMMA
#MTYPE:                      ,TG
#INSTRUMENT:                 ,NETZSCH TG 209F1 Libra
#PROJECT:                    ,IL
#DATE/TIME:                  ,13/03/2017 4:03:23 PM (UTC+11)
#CORR. FILE:                 ,
#TEMPCAL:                    ,TCALZERO.TCX
#LABORATORY:                 ,Capture Lab
#OPERATOR:                   ,NJN
#REMARK:                     ,Training run
#SAMPLE:                     ,E
#SAMPLE MASS /mg:            ,15.8650
#MATERIAL:                   ,KHCO3
#TYPE OF CRUCIBLE:           ,Al2O3
#SAMPLE CRUCIBLE MASS /mg:   ,311.1638
#REFERENCE CRUCIBLE MASS /mg:,
#M.RANGE /mg:                ,2000
#CORR. CODE:                 ,090
#RANGE:                      ,32°C/10.0(K/min)/800°C
#SEGMENT:                    ,S1/1
#SEG. 1:                     ,32°C/10.0(K/min)/800°C

##Temp./°C,Time/min,Mass loss/mg
 31.68300, 0.00000,-1.695131e-003
 31.67800, 0.05167,-4.354142e-003
 31.73500, 0.10333,-7.023637e-003
 32.04800, 0.15500,-5.205789e-003
 32.43700, 0.20667,-6.132129e-003
 32.79600, 0.25833,-7.823036e-003
 33.15800, 0.31000,-9.654826e-003
 33.56600, 0.36167,-1.154839e-002
 34.02000, 0.41333,-1.398628e-002
 34.50900, 0.46500,-1.645880e-002
 35.01800, 0.51667,-1.977572e-002
 35.55100, 0.56833,-2.285251e-002
 36.11500, 0.62000,-2.652475e-002
 36.70300, 0.67167,-3.013570e-002
 37.30700, 0.72333,-3.367610e-002
 37.92900, 0.77500,-3.743752e-002
 38.56100, 0.82667,-4.098934e-002
 39.20500, 0.87833,-4.542495e-002
 39.85000, 0.93000,-4.991313e-002
 40.50000, 0.98167,-5.487096e-002
 41.15300, 1.03333,-5.934082e-002
 41.80200, 1.08500,-6.457320e-002
 42.44300, 1.13667,-6.972138e-002
 43.08700, 1.18833,-7.517447e-002
 43.71900, 1.24000,-8.082156e-002
 44.34400, 1.29167,-8.655869e-002
 44.95600, 1.34333,-9.287888e-002
 45.56200, 1.39500,-9.895531e-002
 46.15500, 1.44667,      -0.10609
 46.73700, 1.49833,      -0.11295
 47.31100, 1.55000,      -0.12001
 47.87600, 1.60167,      -0.12715
 48.42700, 1.65333,      -0.13409
 48.97300, 1.70500,      -0.14166
 49.51000, 1.75667,      -0.14942
 50.04100, 1.80833,      -0.15813
 50.56400, 1.86000,      -0.16620
 51.08100, 1.91167,      -0.17509
 51.59200, 1.96333,      -0.18292
 52.09700, 2.01500,      -0.19152
 52.59800, 2.06667,      -0.20048
 53.09800, 2.11833,      -0.20935
 53.59400, 2.17000,      -0.21890
 54.09000, 2.22167,      -0.22771
 54.58700, 2.27333,      -0.23761
 55.08300, 2.32500,      -0.24684
 55.57700, 2.37667,      -0.25735
 56.07200, 2.42833,      -0.26719
 56.57000, 2.48000,      -0.27704
 57.07200, 2.53167,      -0.28692
 57.57200, 2.58333,      -0.29546
 58.07600, 2.63500,      -0.30574
 58.57600, 2.68667,      -0.31646
 59.08200, 2.73833,      -0.32773
 59.58700, 2.79000,      -0.33828
 60.09800, 2.84167,      -0.34937
 60.60600, 2.89333,      -0.36080
 61.11700, 2.94500,      -0.37176
 61.63300, 2.99667,      -0.38294
 62.14600, 3.04833,      -0.39348
 62.66300, 3.10000,      -0.40493
 63.18100, 3.15167,      -0.41549
 63.70100, 3.20333,      -0.42765
 64.22100, 3.25500,      -0.43930
 64.74300, 3.30667,      -0.45182
 65.26600, 3.35833,      -0.46416
 65.78700, 3.41000,      -0.47588
 66.31000, 3.46167,      -0.48793
 66.83400, 3.51333,      -0.49876
 67.35500, 3.56500,      -0.51086
 67.87800, 3.61667,      -0.52229
 68.40100, 3.66833,      -0.53440
 68.92300, 3.72000,      -0.54550
 69.44700, 3.77167,      -0.55792
 69.96800, 3.82333,      -0.57052
 70.48900, 3.87500,      -0.58213
 71.00900, 3.92667,      -0.59493
 71.53400, 3.97833,      -0.60635
 72.05300, 4.03000,      -0.61845
 72.57200, 4.08167,      -0.62984
 73.09200, 4.13333,      -0.64165
 73.61100, 4.18500,      -0.65355
 74.12700, 4.23667,      -0.66584
 74.64600, 4.28833,      -0.67803
 75.16500, 4.34000,      -0.68935
 75.68700, 4.39167,      -0.70057
 76.20500, 4.44333,      -0.71166
 76.72400, 4.49500,      -0.72335
 77.24000, 4.54667,      -0.73414
 77.76000, 4.59833,      -0.74596
 78.27900, 4.65000,      -0.75667
 78.80000, 4.70167,      -0.76806
 79.31400, 4.75333,      -0.77854
 79.83200, 4.80500,      -0.78994
 80.34800, 4.85667,      -0.80113
 80.86500, 4.90833,      -0.81144
 81.38000, 4.96000,      -0.82244
 81.89900, 5.01167,      -0.83203
 82.41600, 5.06333,      -0.84293
 82.93200, 5.11500,      -0.85263
 83.44400, 5.16667,      -0.86290
 83.96200, 5.21833,      -0.87281
 84.47900, 5.27000,      -0.88291
 84.99700, 5.32167,      -0.89281
 85.51600, 5.37333,      -0.90203
 86.03700, 5.42500,      -0.91193
 86.55500, 5.47667,      -0.92092
 87.06800, 5.52833,      -0.93050
 87.59000, 5.58000,      -0.93932
 88.11100, 5.63167,      -0.94882
 88.63400, 5.68333,      -0.95802
 89.14700, 5.73500,      -0.96690
 89.66700, 5.78667,      -0.97609
 90.18600, 5.83833,      -0.98449
 90.70300, 5.89000,      -0.99306
 91.21700, 5.94167,      -1.00105
 91.73600, 5.99333,      -1.00924
 92.25200, 6.04500,      -1.01633
 92.77000, 6.09667,      -1.02422
 93.28700, 6.14833,      -1.03202
 93.80400, 6.20000,      -1.03952
 94.32500, 6.25167,      -1.04771
 94.84500, 6.30333,      -1.05531
 95.36000, 6.35500,      -1.06329
 95.87900, 6.40667,      -1.07019
 96.39500, 6.45833,      -1.07747
 96.91200, 6.51000,      -1.08426
 97.43200, 6.56167,      -1.09116
 97.94700, 6.61333,      -1.09865
 98.46000, 6.66500,      -1.10492
 98.97800, 6.71667,      -1.11161
 99.48900, 6.76833,      -1.11769
100.004, 6.82000,      -1.12438
100.522, 6.87167,      -1.13071
101.043, 6.92333,      -1.13664
101.558, 6.97500,      -1.14266
102.076, 7.02667,      -1.14866
102.591, 7.07833,      -1.15437
103.108, 7.13000,      -1.15989
103.627, 7.18167,      -1.16540
104.143, 7.23333,      -1.17120
104.658, 7.28500,      -1.17670
105.174, 7.33667,      -1.18170
105.688, 7.38833,      -1.18720
106.203, 7.44000,      -1.19220
106.721, 7.49167,      -1.19741
107.236, 7.54333,      -1.20240
107.754, 7.59500,      -1.20701
108.27, 7.64667,      -1.21221
108.784, 7.69833,      -1.21670
109.302, 7.75000,      -1.22130
109.818, 7.80167,      -1.22528
110.331, 7.85333,      -1.22946
110.85, 7.90500,      -1.23367
111.366, 7.95667,      -1.23816
111.883, 8.00833,      -1.24266
112.397, 8.06000,      -1.24623
112.915, 8.11167,      -1.24994
113.436, 8.16333,      -1.25372
113.947, 8.21500,      -1.25790
114.463, 8.26667,      -1.26207
114.977, 8.31833,      -1.26576
115.496, 8.37000,      -1.26915
116.014, 8.42167,      -1.27203
116.528, 8.47333,      -1.27569
117.047, 8.52500,      -1.27918
117.561, 8.57667,      -1.28244
118.075, 8.62833,      -1.28562
118.592, 8.68000,      -1.28890
119.11, 8.73167,      -1.29208
119.624, 8.78333,      -1.29514
120.143, 8.83500,      -1.29833
120.663, 8.88667,      -1.30130
121.176, 8.93833,      -1.30437
121.692, 8.99000,      -1.30734
122.21, 9.04167,      -1.31020
122.727, 9.09333,      -1.31237
123.241, 9.14500,      -1.31523
123.759, 9.19667,      -1.31810
124.278, 9.24833,      -1.32087
124.792, 9.30000,      -1.32322
125.308, 9.35167,      -1.32559
125.824, 9.40333,      -1.32775
126.342, 9.45500,      -1.33041
126.857, 9.50667,      -1.33307
127.372, 9.55833,      -1.33533
127.892, 9.61000,      -1.33749
128.404, 9.66167,      -1.33944
128.924, 9.71333,      -1.34181
129.442, 9.76500,      -1.34426
129.955, 9.81667,      -1.34640
130.472, 9.86833,      -1.34926
130.991, 9.92000,      -1.35183
131.505, 9.97167,      -1.35428
132.025,10.02333,      -1.35643
132.54,10.07500,      -1.35788
133.059,10.12667,      -1.35913
133.576,10.17833,      -1.36078
134.094,10.23000,      -1.36284
134.614,10.28167,      -1.36528
135.13,10.33333,      -1.36763
135.649,10.38500,      -1.36908
136.164,10.43667,      -1.37082
136.679,10.48833,      -1.37226
137.195,10.54000,      -1.37460
137.712,10.59167,      -1.37705
138.225,10.64333,      -1.37948
138.742,10.69500,      -1.38153
139.259,10.74667,      -1.38349
139.778,10.79833,      -1.38523
140.296,10.85000,      -1.38637
140.81,10.90167,      -1.38801
141.326,10.95333,      -1.38974
141.843,11.00500,      -1.39198
142.361,11.05667,      -1.39413
142.877,11.10833,      -1.39637
143.395,11.16000,      -1.39840
143.908,11.21167,      -1.40073
144.422,11.26333,      -1.40307
144.939,11.31500,      -1.40481
145.457,11.36667,      -1.40625
145.978,11.41833,      -1.40789
146.494,11.47000,      -1.40913
147.014,11.52167,      -1.41057
147.53,11.57333,      -1.41220
148.045,11.62500,      -1.41423
148.564,11.67667,      -1.41676
149.081,11.72833,      -1.41920
149.596,11.78000,      -1.42122
150.112,11.83167,      -1.42385
150.631,11.88333,      -1.42609
151.148,11.93500,      -1.42832
151.663,11.98667,      -1.43025
152.178,12.03833,      -1.43228
152.697,12.09000,      -1.43462
153.212,12.14167,      -1.43674
153.729,12.19333,      -1.43938
154.245,12.24500,      -1.44161
154.762,12.29667,      -1.44394
155.28,12.34833,      -1.44637
155.797,12.40000,      -1.44889
156.313,12.45167,      -1.45153
156.831,12.50333,      -1.45415
157.344,12.55500,      -1.45688
157.86,12.60667,      -1.45950
158.375,12.65833,      -1.46203
158.892,12.71000,      -1.46466
159.407,12.76167,      -1.46689
159.925,12.81333,      -1.46952
160.444,12.86500,      -1.47245
160.958,12.91667,      -1.47517
161.472,12.96833,      -1.47800
161.992,13.02000,      -1.48023
162.509,13.07167,      -1.48296
163.024,13.12333,      -1.48588
163.541,13.17500,      -1.48861
164.052,13.22667,      -1.49143
164.573,13.27833,      -1.49406
165.091,13.33000,      -1.49749
165.606,13.38167,      -1.50031
166.12,13.43333,      -1.50294
166.637,13.48500,      -1.50607
167.155,13.53667,      -1.50859
167.673,13.58833,      -1.51122
168.191,13.64000,      -1.51395
168.706,13.69167,      -1.51777
169.221,13.74333,      -1.52129
169.735,13.79500,      -1.52492
170.25,13.84667,      -1.52864
170.764,13.89833,      -1.53266
171.282,13.95000,      -1.53640
171.797,14.00167,      -1.53943
172.316,14.05333,      -1.54276
172.834,14.10500,      -1.54569
173.354,14.15667,      -1.54842
173.874,14.20833,      -1.55115
174.392,14.26000,      -1.55467
174.908,14.31167,      -1.55810
175.428,14.36333,      -1.56133
175.944,14.41500,      -1.56395
176.461,14.46667,      -1.56667
176.978,14.51833,      -1.56980
177.493,14.57000,      -1.57362
178.014,14.62167,      -1.57775
178.525,14.67333,      -1.58118
179.043,14.72500,      -1.58491
179.561,14.77667,      -1.58844
180.077,14.82833,      -1.59187
180.592,14.88000,      -1.59569
181.11,14.93167,      -1.59953
181.626,14.98333,      -1.60355
182.147,15.03500,      -1.60689
182.663,15.08667,      -1.61002
183.182,15.13833,      -1.61325
183.698,15.19000,      -1.61648
184.214,15.24167,      -1.61981
184.732,15.29333,      -1.62334
185.248,15.34500,      -1.62717
185.764,15.39667,      -1.63090
186.281,15.44833,      -1.63453
186.798,15.50000,      -1.63797
187.315,15.55167,      -1.64170
187.832,15.60333,      -1.64493
188.345,15.65500,      -1.64836
188.863,15.70667,      -1.65210
189.38,15.75833,      -1.65603
189.896,15.81000,      -1.66007
190.41,15.86167,      -1.66430
190.926,15.91333,      -1.66844
191.444,15.96500,      -1.67187
191.96,16.01667,      -1.67581
192.475,16.06833,      -1.67975
192.993,16.12000,      -1.68419
193.508,16.17167,      -1.68822
194.026,16.22333,      -1.69247
194.544,16.27500,      -1.69681
195.061,16.32667,      -1.70045
195.577,16.37833,      -1.70419
196.095,16.43000,      -1.70763
196.611,16.48167,      -1.71187
197.128,16.53333,      -1.71651
197.648,16.58500,      -1.72076
198.161,16.63667,      -1.72500
198.682,16.68833,      -1.72964
199.197,16.74000,      -1.73448
199.711,16.79167,      -1.73883
200.231,16.84333,      -1.74328
200.749,16.89500,      -1.74762
201.269,16.94667,      -1.75177
201.785,16.99833,      -1.75661
202.3,17.05000,      -1.76126
202.818,17.10167,      -1.76591
203.335,17.15333,      -1.77055
203.849,17.20500,      -1.77549
204.367,17.25667,      -1.77984
204.882,17.30833,      -1.78469
205.4,17.36000,      -1.78924
205.918,17.41167,      -1.79429
206.434,17.46333,      -1.79873
206.95,17.51500,      -1.80378
207.465,17.56667,      -1.80863
207.981,17.61833,      -1.81407
208.498,17.67000,      -1.81962
209.014,17.72167,      -1.82497
209.527,17.77333,      -1.83092
210.044,17.82500,      -1.83626
210.562,17.87667,      -1.84162
211.079,17.92833,      -1.84657
211.598,17.98000,      -1.85211
212.117,18.03167,      -1.85777
212.633,18.08333,      -1.86371
213.153,18.13500,      -1.86966
213.668,18.18667,      -1.87581
214.184,18.23833,      -1.88256
214.703,18.29000,      -1.88931
215.215,18.34167,      -1.89616
215.735,18.39333,      -1.90211
216.249,18.44500,      -1.90806
216.767,18.49667,      -1.91401
217.285,18.54833,      -1.92116
217.803,18.60000,      -1.92841
218.317,18.65167,      -1.93516
218.833,18.70333,      -1.94250
219.348,18.75500,      -1.94945
219.864,18.80667,      -1.95700
220.38,18.85833,      -1.96366
220.897,18.91000,      -1.97091
221.414,18.96167,      -1.97776
221.932,19.01333,      -1.98531
222.452,19.06500,      -1.99306
222.97,19.11667,      -2.00021
223.483,19.16833,      -2.00836
223.998,19.22000,      -2.01601
224.515,19.27167,      -2.02406
225.033,19.32333,      -2.03221
225.552,19.37500,      -2.04017
226.069,19.42667,      -2.04812
226.588,19.47833,      -2.05637
227.106,19.53000,      -2.06572
227.62,19.58167,      -2.07477
228.132,19.63333,      -2.08452
228.647,19.68500,      -2.09357
229.166,19.73667,      -2.10332
229.679,19.78833,      -2.11257
230.194,19.84000,      -2.12222
230.71,19.89167,      -2.13118
231.226,19.94333,      -2.14113
231.74,19.99500,      -2.15128
232.254,20.04667,      -2.16083
232.775,20.09833,      -2.17079
233.291,20.15000,      -2.17974
233.806,20.20167,      -2.19049
234.325,20.25333,      -2.20104
234.841,20.30500,      -2.21280
235.358,20.35667,      -2.22355
235.873,20.40833,      -2.23530
236.388,20.46000,      -2.24685
236.907,20.51167,      -2.25760
237.422,20.56333,      -2.26955
237.939,20.61500,      -2.28031
238.453,20.66667,      -2.29196
238.974,20.71833,      -2.30351
239.491,20.77000,      -2.31546
240.005,20.82167,      -2.32742
240.523,20.87333,      -2.34007
241.041,20.92500,      -2.35282
241.555,20.97667,      -2.36497
242.074,21.02833,      -2.39213
242.589,21.08000,      -2.40068
243.108,21.13167,      -2.41073
243.624,21.18333,      -2.42208
244.14,21.23500,      -2.44363
244.659,21.28667,      -2.45619
245.175,21.33833,      -2.46654
245.692,21.39000,      -2.47979
246.208,21.44167,      -2.50374
246.725,21.49333,      -2.51529
247.24,21.54500,      -2.53865
247.756,21.59667,      -2.55130
248.271,21.64833,      -2.56225
248.788,21.70000,      -2.58700
249.304,21.75167,      -2.60405
249.821,21.80333,      -2.62021
250.339,21.85500,      -2.63796
250.855,21.90667,      -2.65431
251.373,21.95833,      -2.67286
251.893,22.01000,      -2.69002
252.406,22.06167,      -2.70837
252.921,22.11333,      -2.72682
253.441,22.16500,      -2.74727
253.955,22.21667,      -2.76622
254.472,22.26833,      -2.78657
254.99,22.32000,      -2.80673
255.508,22.37167,      -2.82538
256.026,22.42333,      -2.84703
256.54,22.47500,      -2.86708
257.057,22.52667,      -2.88883
257.574,22.57833,      -2.91018
258.091,22.63000,      -2.93273
258.607,22.68167,      -2.95539
259.126,22.73333,      -2.97684
259.642,22.78500,      -2.99999
260.16,22.83667,      -3.02254
260.675,22.88833,      -3.04849
261.192,22.94000,      -3.07184
261.706,22.99167,      -3.09749
262.22,23.04333,      -3.12194
262.734,23.09500,      -3.14819
263.251,23.14667,      -3.17464
263.765,23.19833,      -3.20129
264.279,23.25000,      -3.22954
264.796,23.30167,      -3.25580
265.314,23.35333,      -3.28415
265.829,23.40500,      -3.31050
266.345,23.45667,      -3.33865
266.863,23.50833,      -3.36550
267.378,23.56000,      -3.39585
267.896,23.61167,      -3.42700
268.415,23.66333,      -3.45585
268.929,23.71500,      -3.48690
269.449,23.76667,      -3.51715
269.965,23.81833,      -3.54970
270.481,23.87000,      -3.58025
270.998,23.92167,      -3.61220
271.515,23.97333,      -3.64164
272.031,24.02500,      -3.67609
272.546,24.07667,      -3.71124
273.062,24.12833,      -3.74349
273.579,24.18000,      -3.77764
274.093,24.23167,      -3.80929
274.61,24.28333,      -3.84514
275.129,24.33500,      -3.87849
275.644,24.38667,      -3.91463
276.162,24.43833,      -3.94968
276.676,24.49000,      -3.98683
277.19,24.54167,      -4.02348
277.707,24.59333,      -4.05893
278.22,24.64500,      -4.09637
278.738,24.69667,      -4.13192
279.256,24.74833,      -4.17057
279.773,24.80000,      -4.20722
280.288,24.85167,      -4.24576
280.805,24.90333,      -4.28251
281.322,24.95500,      -4.32166
281.84,25.00667,      -4.35990
282.342,25.05833,      -4.39625
282.876,25.11000,      -4.43570
283.392,25.16167,      -4.47324
283.909,25.21333,      -4.51339
284.426,25.26500,      -4.54913
284.942,25.31667,      -4.58808
285.461,25.36833,      -4.62873
285.974,25.42000,      -4.66497
286.495,25.47167,      -4.70562
287.006,25.52333,      -4.74396
287.523,25.57500,      -4.78321
288.039,25.62667,      -4.81995
288.587,25.67833,      -4.85959
289.107,25.73000,      -4.89734
289.62,25.78167,      -4.93618
290.134,25.83333,      -4.97212
290.641,25.88500,      -5.01007
291.152,25.93667,      -5.04851
291.665,25.98833,      -5.08386
292.176,26.04000,      -5.12170
292.69,26.09167,      -5.15694
293.204,26.14333,      -5.19389
293.72,26.19500,      -5.22833
294.236,26.24667,      -5.26457
294.752,26.29833,      -5.29901
295.271,26.35000,      -5.33456
295.785,26.40167,      -5.36930
296.304,26.45333,      -5.40184
296.821,26.50500,      -5.43638
297.337,26.55667,      -5.46842
297.852,26.60833,      -5.50256
298.368,26.66000,      -5.53470
298.884,26.71167,      -5.56755
299.401,26.76333,      -5.59809
299.919,26.81500,      -5.62943
300.433,26.86667,      -5.66147
300.954,26.91833,      -5.69041
301.47,26.97000,      -5.72124
301.989,27.02167,      -5.74958
302.506,27.07333,      -5.78062
303.021,27.12500,      -5.80867
303.536,27.17667,      -5.83811
304.053,27.22833,      -5.86555
304.57,27.28000,      -5.89499
305.084,27.33167,      -5.92453
305.601,27.38333,      -5.95097
306.118,27.43500,      -5.97961
306.635,27.48667,      -6.00655
307.151,27.53833,      -6.03379
307.667,27.59000,      -6.05973
308.185,27.64167,      -6.08797
308.704,27.69333,      -6.11391
309.219,27.74500,      -6.14155
309.737,27.79667,      -6.16869
310.255,27.84833,      -6.19433
310.769,27.90000,      -6.22107
311.288,27.95167,      -6.24731
311.805,28.00333,      -6.27375
312.322,28.05500,      -6.29949
312.839,28.10667,      -6.32643
313.352,28.15833,      -6.35207
313.87,28.21000,      -6.37931
314.384,28.26167,      -6.40715
314.9,28.31333,      -6.43259
315.416,28.36500,      -6.46113
315.933,28.41667,      -6.48607
316.45,28.46833,      -6.50921
316.967,28.52000,      -6.53305
317.487,28.57167,      -6.55939
318.005,28.62333,      -6.58453
318.521,28.67500,      -6.60627
319.042,28.72667,      -6.63091
319.56,28.77833,      -6.65385
320.077,28.83000,      -6.67899
320.591,28.88167,      -6.70193
321.106,28.93333,      -6.72657
321.618,28.98500,      -6.74911
322.135,29.03667,      -6.77225
322.648,29.08833,      -6.79199
323.161,29.14000,      -6.81463
323.673,29.19167,      -6.83637
324.189,29.24333,      -6.85611
324.705,29.29500,      -6.87745
325.221,29.34667,      -6.89739
325.735,29.39833,      -6.91793
326.252,29.45000,      -6.93587
326.771,29.50167,      -6.95541
327.289,29.55333,      -6.97414
327.804,29.60500,      -6.99188
328.323,29.65667,      -7.00882
328.839,29.70833,      -7.02726
329.355,29.76000,      -7.04570
329.869,29.81167,      -7.06184
330.387,29.86333,      -7.07948
330.906,29.91500,      -7.09252
331.424,29.96667,      -7.10416
331.944,30.01833,      -7.12560
332.461,30.07000,      -7.13663
332.978,30.12167,      -7.16047
333.492,30.17333,      -7.17111
334.007,30.22500,      -7.18355
334.521,30.27667,      -7.19639
335.035,30.32833,      -7.22203
335.555,30.38000,      -7.23137
336.069,30.43167,      -7.24321
336.586,30.48333,      -7.25515
337.1,30.53500,      -7.27949
337.618,30.58667,      -7.28912
338.133,30.63833,      -7.29966
338.652,30.69000,      -7.31200
339.169,30.74167,      -7.33394
339.685,30.79333,      -7.34347
340.205,30.84500,      -7.35361
340.72,30.89667,      -7.36505
341.239,30.94833,      -7.37799
341.755,31.00000,      -7.39013
342.272,31.05167,      -7.41436
342.784,31.10333,      -7.42230
343.301,31.15500,      -7.43244
343.816,31.20667,      -7.44268
344.333,31.25833,      -7.45411
344.852,31.31000,      -7.46555
345.369,31.36167,      -7.47679
345.885,31.41333,      -7.48772
346.404,31.46500,      -7.49936
346.924,31.51667,      -7.51080
347.439,31.56833,      -7.52133
347.955,31.62000,      -7.53217
348.473,31.67167,      -7.54281
348.989,31.72333,      -7.55385
349.505,31.77500,      -7.56458
350.019,31.82667,      -7.57612
350.534,31.87833,      -7.58696
351.051,31.93000,      -7.59859
351.564,31.98167,      -7.60983
352.079,32.03333,      -7.62087
352.594,32.08500,      -7.63160
353.11,32.13667,      -7.64114
353.628,32.18833,      -7.65127
354.144,32.24000,      -7.65991
354.659,32.29167,      -7.67034
355.175,32.34333,      -7.68058
355.691,32.39500,      -7.69041
356.207,32.44667,      -7.69995
356.72,32.49833,      -7.70878
357.236,32.55000,      -7.71902
357.751,32.60167,      -7.72765
358.269,32.65333,      -7.73709
358.788,32.70500,      -7.74612
359.303,32.75667,      -7.75525
359.823,32.80833,      -7.76499
360.338,32.86000,      -7.77412
360.854,32.91167,      -7.78386
361.372,32.96333,      -7.79269
361.885,33.01500,      -7.80212
362.406,33.06667,      -7.81206
362.924,33.11833,      -7.82129
363.438,33.17000,      -7.82972
363.955,33.22167,      -7.83866
364.474,33.27333,      -7.84759
364.988,33.32500,      -7.85582
365.504,33.37667,      -7.86446
366.023,33.42833,      -7.87249
366.54,33.48000,      -7.88102
367.056,33.53167,      -7.88955
367.576,33.58333,      -7.89848
368.091,33.63500,      -7.90682
368.607,33.68667,      -7.91605
369.122,33.73833,      -7.92478
369.639,33.79000,      -7.93311
370.153,33.84167,      -7.94235
370.669,33.89333,      -7.95008
371.186,33.94500,      -7.95841
371.704,33.99667,      -7.96584
372.22,34.04833,      -7.97437
372.737,34.10000,      -7.98250
373.253,34.15167,      -7.99073
373.768,34.20333,      -7.99946
374.286,34.25500,      -8.00749
374.8,34.30667,      -8.01582
375.318,34.35833,      -8.02325
375.834,34.41000,      -8.03128
376.35,34.46167,      -8.03901
376.866,34.51333,      -8.04704
377.381,34.56500,      -8.05447
377.9,34.61667,      -8.06300
378.417,34.66833,      -8.07153
378.931,34.72000,      -8.07976
379.446,34.77167,      -8.08769
379.962,34.82333,      -8.09501
380.478,34.87500,      -8.10274
380.995,34.92667,      -8.11007
381.51,34.97833,      -8.11840
382.027,35.03000,      -8.12572
382.544,35.08167,      -8.13375
383.06,35.13333,      -8.14118
383.58,35.18500,      -8.14880
384.095,35.23667,      -8.15663
384.61,35.28833,      -8.16416
385.124,35.34000,      -8.17279
385.639,35.39167,      -8.18071
386.154,35.44333,      -8.18884
386.671,35.49500,      -8.19587
387.186,35.54667,      -8.20319
387.706,35.59833,      -8.21092
388.221,35.65000,      -8.21794
388.74,35.70167,      -8.22626
389.254,35.75333,      -8.23439
389.772,35.80500,      -8.24191
390.287,35.85667,      -8.24864
390.802,35.90833,      -8.25597
391.318,35.96000,      -8.26309
391.834,36.01167,      -8.27052
392.351,36.06333,      -8.27754
392.864,36.11500,      -8.28446
393.384,36.16667,      -8.29228
393.9,36.21833,      -8.29981
394.415,36.27000,      -8.30773
394.934,36.32167,      -8.31505
395.449,36.37333,      -8.32278
395.968,36.42500,      -8.32990
396.483,36.47667,      -8.33692
396.999,36.52833,      -8.34474
397.516,36.58000,      -8.35156
398.033,36.63167,      -8.35888
398.545,36.68333,      -8.36551
399.063,36.73500,      -8.37323
399.581,36.78667,      -8.37925
400.094,36.83833,      -8.38727
400.608,36.89000,      -8.39510
401.121,36.94167,      -8.40261
401.644,36.99333,      -8.41033
402.163,37.04500,      -8.41675
402.68,37.09667,      -8.42377
403.198,37.14833,      -8.43069
403.714,37.20000,      -8.43780
404.23,37.25167,      -8.44463
404.748,37.30333,      -8.45135
405.261,37.35500,      -8.45807
405.777,37.40667,      -8.46499
406.291,37.45833,      -8.47221
406.807,37.51000,      -8.47913
407.325,37.56167,      -8.48654
407.839,37.61333,      -8.49366
408.356,37.66500,      -8.50138
408.873,37.71667,      -8.50830
409.386,37.76833,      -8.51612
409.906,37.82000,      -8.52353
410.418,37.87167,      -8.53126
410.934,37.92333,      -8.53817
411.451,37.97500,      -8.54459
411.967,38.02667,      -8.55170
412.487,38.07833,      -8.55812
413.006,38.13000,      -8.56574
413.523,38.18167,      -8.57305
414.042,38.23333,      -8.57997
414.555,38.28500,      -8.58679
415.075,38.33667,      -8.59370
415.592,38.38833,      -8.60082
416.108,38.44000,      -8.60734
416.627,38.49167,      -8.61426
417.139,38.54333,      -8.62057
417.656,38.59500,      -8.62739
418.172,38.64667,      -8.63431
418.685,38.69833,      -8.64142
419.202,38.75000,      -8.64834
419.717,38.80167,      -8.65616
420.231,38.85333,      -8.66337
420.747,38.90500,      -8.66949
421.264,38.95667,      -8.67630
421.781,39.00833,      -8.68312
422.299,39.06000,      -8.68973
422.816,39.11167,      -8.69605
423.336,39.16333,      -8.70306
423.854,39.21500,      -8.70897
424.369,39.26667,      -8.71639
424.88,39.31833,      -8.72371
425.391,39.37000,      -8.73033
425.908,39.42167,      -8.73774
426.422,39.47333,      -8.74405
426.937,39.52500,      -8.75137
427.454,39.57667,      -8.75748
427.972,39.62833,      -8.76419
428.491,39.68000,      -8.77060
429.01,39.73167,      -8.77721
429.525,39.78333,      -8.78413
430.042,39.83500,      -8.79024
430.559,39.88667,      -8.79686
431.075,39.93833,      -8.80327
431.591,39.99000,      -8.81009
432.105,40.04167,      -8.81710
432.622,40.09333,      -8.82381
433.138,40.14500,      -8.83002
433.655,40.19667,      -8.83673
434.173,40.24833,      -8.84354
434.686,40.30000,      -8.85026
435.203,40.35167,      -8.85767
435.724,40.40333,      -8.86408
436.236,40.45500,      -8.87129
436.755,40.50667,      -8.87761
437.27,40.55833,      -8.88402
437.788,40.61000,      -8.88973
438.306,40.66167,      -8.89644
438.822,40.71333,      -8.90285
439.338,40.76500,      -8.90866
439.856,40.81667,      -8.91457
440.371,40.86833,      -8.92008
440.887,40.92000,      -8.92639
441.404,40.97167,      -8.93210
441.921,41.02333,      -8.93841
442.437,41.07500,      -8.94473
442.953,41.12667,      -8.95064
443.469,41.17833,      -8.95765
443.983,41.23000,      -8.96416
444.499,41.28167,      -8.97087
445.013,41.33333,      -8.97688
445.528,41.38500,      -8.98329
446.042,41.43667,      -8.98910
446.557,41.48833,      -8.99491
447.073,41.54000,      -9.00052
447.592,41.59167,      -9.00632
448.109,41.64333,      -9.01293
448.626,41.69500,      -9.01964
449.143,41.74667,      -9.02595
449.662,41.79833,      -9.03146
450.179,41.85000,      -9.03707
450.692,41.90167,      -9.04248
451.207,41.95333,      -9.04859
451.722,42.00500,      -9.05459
452.24,42.05667,      -9.06000
452.757,42.10833,      -9.06531
453.275,42.16000,      -9.07081
453.791,42.21167,      -9.07772
454.302,42.26333,      -9.08384
454.822,42.31500,      -9.08994
455.334,42.36667,      -9.09515
455.852,42.41833,      -9.10055
456.37,42.47000,      -9.10596
456.887,42.52167,      -9.11127
457.403,42.57333,      -9.11677
457.922,42.62500,      -9.12198
458.438,42.67667,      -9.12729
458.956,42.72833,      -9.13269
459.471,42.78000,      -9.13790
459.987,42.83167,      -9.14331
460.501,42.88333,      -9.14912
461.014,42.93500,      -9.15482
461.532,42.98667,      -9.15993
462.049,43.03833,      -9.16413
462.566,43.09000,      -9.16963
463.085,43.14167,      -9.17474
463.601,43.19333,      -9.17944
464.12,43.24500,      -9.18395
464.634,43.29667,      -9.18866
465.148,43.34833,      -9.19366
465.662,43.40000,      -9.19867
466.181,43.45167,      -9.20387
466.695,43.50333,      -9.20978
467.212,43.55500,      -9.21478
467.727,43.60667,      -9.21969
468.245,43.65833,      -9.22419
468.759,43.71000,      -9.22919
469.276,43.76167,      -9.23430
469.793,43.81333,      -9.24000
470.308,43.86500,      -9.24531
470.822,43.91667,      -9.24951
471.337,43.96833,      -9.25402
471.855,44.02000,      -9.25812
472.367,44.07167,      -9.26232
472.881,44.12333,      -9.26613
473.398,44.17500,      -9.27013
473.916,44.22667,      -9.27373
474.435,44.27833,      -9.27793
474.952,44.33000,      -9.28293
475.465,44.38167,      -9.28814
475.982,44.43333,      -9.29284
476.497,44.48500,      -9.29664
477.016,44.53667,      -9.30064
477.533,44.58833,      -9.30454
478.05,44.64000,      -9.30875
478.567,44.69167,      -9.31305
479.085,44.74333,      -9.31675
479.598,44.79500,      -9.32055
480.115,44.84667,      -9.32445
480.63,44.89833,      -9.32916
481.146,44.95000,      -9.33326
481.662,45.00167,      -9.33916
482.173,45.05333,      -9.34346
482.693,45.10500,      -9.34776
483.21,45.15667,      -9.35116
483.726,45.20833,      -9.35516
484.238,45.26000,      -9.35897
484.759,45.31167,      -9.36236
485.273,45.36333,      -9.36596
485.793,45.41500,      -9.36896
486.311,45.46667,      -9.37286
486.827,45.51833,      -9.37706
487.342,45.57000,      -9.38046
487.858,45.62167,      -9.38376
488.374,45.67333,      -9.38696
488.889,45.72500,      -9.39126
489.403,45.77667,      -9.39546
489.918,45.82833,      -9.39936
490.434,45.88000,      -9.40296
490.951,45.93167,      -9.40636
491.466,45.98333,      -9.40956
491.985,46.03500,      -9.41355
492.502,46.08667,      -9.41685
493.022,46.13833,      -9.41975
493.538,46.19000,      -9.42365
494.054,46.24167,      -9.42765
494.566,46.29333,      -9.43175
495.083,46.34500,      -9.43505
495.598,46.39667,      -9.43904
496.112,46.44833,      -9.44224
496.627,46.50000,      -9.44564
497.144,46.55167,      -9.44874
497.661,46.60333,      -9.45153
498.179,46.65500,      -9.45473
498.694,46.70667,      -9.45743
499.214,46.75833,      -9.46062
499.729,46.81000,      -9.46342
500.245,46.86167,      -9.46651
500.762,46.91333,      -9.46901
501.277,46.96500,      -9.47221
501.791,47.01667,      -9.47571
502.307,47.06833,      -9.47921
502.82,47.12000,      -9.48260
503.338,47.17167,      -9.48570
503.855,47.22333,      -9.48909
504.371,47.27500,      -9.49249
504.887,47.32667,      -9.49568
505.405,47.37833,      -9.49878
505.92,47.43000,      -9.50198
506.435,47.48167,      -9.50517
506.95,47.53333,      -9.50797
507.469,47.58500,      -9.51056
507.989,47.63667,      -9.51356
508.505,47.68833,      -9.51625
509.017,47.74000,      -9.51955
509.533,47.79167,      -9.52255
510.05,47.84333,      -9.52504
510.565,47.89500,      -9.52754
511.083,47.94667,      -9.52983
511.597,47.99833,      -9.53303
512.113,48.05000,      -9.53642
512.628,48.10167,      -9.53902
513.143,48.15333,      -9.54141
513.658,48.20500,      -9.54421
514.175,48.25667,      -9.54720
514.689,48.30833,      -9.55010
515.206,48.36000,      -9.55259
515.722,48.41167,      -9.55529
516.237,48.46333,      -9.55808
516.754,48.51500,      -9.56077
517.27,48.56667,      -9.56267
517.788,48.61833,      -9.56486
518.305,48.67000,      -9.56785
518.823,48.72167,      -9.57075
519.338,48.77333,      -9.57264
519.853,48.82500,      -9.57484
520.372,48.87667,      -9.57743
520.886,48.92833,      -9.58062
521.403,48.98000,      -9.58372
521.917,49.03167,      -9.58641
522.435,49.08333,      -9.58900
522.951,49.13500,      -9.59170
523.467,49.18667,      -9.59459
523.985,49.23833,      -9.59708
524.504,49.29000,      -9.59917
525.018,49.34167,      -9.60076
525.538,49.39333,      -9.60225
526.052,49.44500,      -9.60385
526.569,49.49667,      -9.60614
527.086,49.54833,      -9.60903
527.603,49.60000,      -9.61153
528.119,49.65167,      -9.61382
528.634,49.70333,      -9.61601
529.148,49.75500,      -9.61870
529.664,49.80667,      -9.62190
530.181,49.85833,      -9.62439
530.697,49.91000,      -9.62668
531.212,49.96167,      -9.62927
531.728,50.01333,      -9.63206
532.245,50.06500,      -9.63445
532.761,50.11667,      -9.63724
533.28,50.16833,      -9.63953
533.796,50.22000,      -9.64202
534.313,50.27167,      -9.64411
534.83,50.32333,      -9.64600
535.346,50.37500,      -9.64830
535.863,50.42667,      -9.65029
536.38,50.47833,      -9.65258
536.894,50.53000,      -9.65477
537.406,50.58167,      -9.65736
537.921,50.63333,      -9.66005
538.438,50.68500,      -9.66194
538.954,50.73667,      -9.66333
539.47,50.78833,      -9.66542
539.984,50.84000,      -9.66771
540.5,50.89167,      -9.66950
541.017,50.94333,      -9.67099
541.534,50.99500,      -9.67237
542.051,51.04667,      -9.67386
542.567,51.09833,      -9.67605
543.082,51.15000,      -9.67894
543.598,51.20167,      -9.68243
544.111,51.25333,      -9.68572
544.629,51.30500,      -9.68871
545.144,51.35667,      -9.69110
545.659,51.40833,      -9.69309
546.179,51.46000,      -9.69377
546.694,51.51167,      -9.69446
547.216,51.56333,      -9.69614
547.73,51.61500,      -9.69863
548.246,51.66667,      -9.70142
548.763,51.71833,      -9.70401
549.277,51.77000,      -9.70640
549.798,51.82167,      -9.70768
550.314,51.87333,      -9.70887
550.829,51.92500,      -9.70996
551.348,51.97667,      -9.71144
551.862,52.02833,      -9.71363
552.378,52.08000,      -9.71602
552.895,52.13167,      -9.71880
553.411,52.18333,      -9.72139
553.926,52.23500,      -9.72408
554.443,52.28667,      -9.72626
554.959,52.33833,      -9.72785
555.476,52.39000,      -9.72903
555.994,52.44167,      -9.73072
556.509,52.49333,      -9.73220
557.029,52.54500,      -9.73359
557.545,52.59667,      -9.73497
558.063,52.64833,      -9.73696
558.579,52.70000,      -9.73974
559.092,52.75167,      -9.74243
559.612,52.80333,      -9.74551
560.129,52.85500,      -9.74820
560.647,52.90667,      -9.74988
561.166,52.95833,      -9.75176
561.686,53.01000,      -9.75394
562.203,53.06167,      -9.75583
562.718,53.11333,      -9.75711
563.233,53.16500,      -9.75820
563.751,53.21667,      -9.75948
564.268,53.26833,      -9.76057
564.783,53.32000,      -9.76165
565.299,53.37167,      -9.76333
565.818,53.42333,      -9.76561
566.337,53.47500,      -9.76880
566.849,53.52667,      -9.77088
567.364,53.57833,      -9.77317
567.88,53.63000,      -9.77595
568.393,53.68167,      -9.77783
568.911,53.73333,      -9.77951
569.426,53.78500,      -9.78089
569.944,53.83667,      -9.78247
570.463,53.88833,      -9.78435
570.981,53.94000,      -9.78623
571.496,53.99167,      -9.78842
572.011,54.04333,      -9.79050
572.529,54.09500,      -9.79208
573.043,54.14667,      -9.79336
573.558,54.19833,      -9.79484
574.072,54.25000,      -9.79682
574.587,54.30167,      -9.79910
575.105,54.35333,      -9.80128
575.622,54.40500,      -9.80316
576.141,54.45667,      -9.80464
576.658,54.50833,      -9.80642
577.178,54.56000,      -9.80809
577.696,54.61167,      -9.80967
578.212,54.66333,      -9.81115
578.727,54.71500,      -9.81244
579.243,54.76667,      -9.81392
579.756,54.81833,      -9.81570
580.274,54.87000,      -9.81787
580.79,54.92167,      -9.81975
581.304,54.97333,      -9.82153
581.822,55.02500,      -9.82380
582.338,55.07667,      -9.82639
582.853,55.12833,      -9.82896
583.367,55.18000,      -9.83134
583.884,55.23167,      -9.83392
584.403,55.28333,      -9.83529
584.922,55.33500,      -9.83647
585.44,55.38667,      -9.83784
585.961,55.43833,      -9.83842
586.476,55.49000,      -9.83959
586.994,55.54167,      -9.84057
587.511,55.59333,      -9.84185
588.028,55.64500,      -9.84302
588.545,55.69667,      -9.84530
589.06,55.74833,      -9.84758
589.576,55.80000,      -9.85055
590.092,55.85167,      -9.85293
590.612,55.90333,      -9.85490
591.125,55.95500,      -9.85698
591.641,56.00667,      -9.85885
592.159,56.05833,      -9.86092
592.679,56.11000,      -9.86210
593.195,56.16167,      -9.86297
593.712,56.21333,      -9.86404
594.232,56.26500,      -9.86542
594.75,56.31667,      -9.86669
595.266,56.36833,      -9.86826
595.78,56.42000,      -9.87064
596.3,56.47167,      -9.87291
596.815,56.52333,      -9.87508
597.333,56.57500,      -9.87646
597.85,56.62667,      -9.87793
598.363,56.67833,      -9.88040
598.882,56.73000,      -9.88237
599.398,56.78167,      -9.88374
599.921,56.83333,      -9.88481
600.436,56.88500,      -9.88619
600.951,56.93667,      -9.88786
601.468,56.98833,      -9.89013
601.98,57.04000,      -9.89251
602.493,57.09167,      -9.89518
603.008,57.14333,      -9.89755
603.524,57.19500,      -9.89962
604.043,57.24667,      -9.90098
604.562,57.29833,      -9.90215
605.077,57.35000,      -9.90272
605.598,57.40167,      -9.90389
606.113,57.45333,      -9.90506
606.629,57.50500,      -9.90613
607.146,57.55667,      -9.90820
607.663,57.60833,      -9.91007
608.178,57.66000,      -9.91234
608.696,57.71167,      -9.91370
609.213,57.76333,      -9.91497
609.729,57.81500,      -9.91634
610.245,57.86667,      -9.91821
610.758,57.91833,      -9.92078
611.275,57.97000,      -9.92365
611.79,58.02167,      -9.92612
612.306,58.07333,      -9.92818
612.821,58.12500,      -9.92965
613.341,58.17667,      -9.93092
613.858,58.22833,      -9.93188
614.376,58.28000,      -9.93285
614.893,58.33167,      -9.93401
615.409,58.38333,      -9.93518
615.928,58.43500,      -9.93645
616.446,58.48667,      -9.93791
616.963,58.53833,      -9.93918
617.481,58.59000,      -9.94044
617.998,58.64167,      -9.94221
618.511,58.69333,      -9.94408
619.031,58.74500,      -9.94544
619.547,58.79667,      -9.94710
620.066,58.84833,      -9.94997
620.581,58.90000,      -9.95304
621.096,58.95167,      -9.95550
621.61,59.00333,      -9.95687
622.126,59.05500,      -9.95793
622.64,59.10667,      -9.95980
623.157,59.15833,      -9.96166
623.673,59.21000,      -9.96342
624.189,59.26167,      -9.96439
624.706,59.31333,      -9.96515
625.223,59.36500,      -9.96601
625.741,59.41667,      -9.96717
626.26,59.46833,      -9.96864
626.775,59.52000,      -9.97090
627.289,59.57167,      -9.97347
627.805,59.62333,      -9.97593
628.323,59.67500,      -9.97779
628.84,59.72667,      -9.97985
629.356,59.77833,      -9.98221
629.874,59.83000,      -9.98377
630.394,59.88167,      -9.98423
630.91,59.93333,      -9.98460
631.429,59.98500,      -9.98526
631.943,60.03667,      -9.98572
632.463,60.08833,      -9.98668
632.978,60.14000,      -9.98834
633.491,60.19167,      -9.99091
634.007,60.24333,      -9.99347
634.523,60.29500,      -9.99493
635.04,60.34667,      -9.99619
635.557,60.39833,      -9.99725
636.074,60.45000,      -9.99841
636.589,60.50167,      -9.99987
637.107,60.55333,     -10.00123
637.624,60.60500,     -10.00319
638.143,60.65667,     -10.00565
638.66,60.70833,     -10.00831
639.176,60.76000,     -10.01057
639.689,60.81167,     -10.01253
640.202,60.86333,     -10.01499
640.717,60.91500,     -10.01725
641.234,60.96667,     -10.01821
641.752,61.01833,     -10.01887
642.269,61.07000,     -10.01972
642.789,61.12167,     -10.02068
643.308,61.17333,     -10.02164
643.823,61.22500,     -10.02260
644.341,61.27667,     -10.02346
644.852,61.32833,     -10.02502
645.365,61.38000,     -10.02658
645.88,61.43167,     -10.02804
646.398,61.48333,     -10.02939
646.915,61.53500,     -10.03095
647.432,61.58667,     -10.03190
647.95,61.63833,     -10.03376
648.465,61.69000,     -10.03602
648.98,61.74167,     -10.03858
649.497,61.79333,     -10.04044
650.012,61.84500,     -10.04109
650.529,61.89667,     -10.04195
651.047,61.94833,     -10.04290
651.566,62.00000,     -10.04386
652.082,62.05167,     -10.04531
652.596,62.10333,     -10.04747
653.115,62.15500,     -10.04973
653.627,62.20667,     -10.05159
654.144,62.25833,     -10.05274
654.659,62.31000,     -10.05390
655.176,62.36167,     -10.05485
655.694,62.41333,     -10.05611
656.212,62.46500,     -10.05766
656.73,62.51667,     -10.05992
657.248,62.56833,     -10.06227
657.764,62.62000,     -10.06363
658.281,62.67167,     -10.06488
658.8,62.72333,     -10.06594
659.312,62.77500,     -10.06729
659.828,62.82667,     -10.06885
660.343,62.87833,     -10.07071
660.858,62.93000,     -10.07306
661.372,62.98167,     -10.07492
661.887,63.03333,     -10.07637
662.404,63.08500,     -10.07732
662.917,63.13667,     -10.07818
663.438,63.18833,     -10.07943
663.956,63.24000,     -10.08068
664.47,63.29167,     -10.08264
664.99,63.34333,     -10.08439
665.508,63.39500,     -10.08584
666.028,63.44667,     -10.08709
666.542,63.49833,     -10.08815
667.059,63.55000,     -10.08930
667.576,63.60167,     -10.09035
668.089,63.65333,     -10.09161
668.605,63.70500,     -10.09266
669.12,63.75667,     -10.09421
669.635,63.80833,     -10.09557
670.154,63.86000,     -10.09692
670.674,63.91167,     -10.09847
671.188,63.96333,     -10.10032
671.705,64.01500,     -10.10197
672.221,64.06667,     -10.10333
672.737,64.11833,     -10.10498
673.254,64.17000,     -10.10663
673.769,64.22167,     -10.10818
674.288,64.27333,     -10.10923
674.804,64.32500,     -10.11028
675.322,64.37667,     -10.11154
675.839,64.42833,     -10.11289
676.356,64.48000,     -10.11394
676.871,64.53167,     -10.11549
677.388,64.58333,     -10.11734
677.904,64.63500,     -10.11939
678.421,64.68667,     -10.12115
678.935,64.73833,     -10.12220
679.452,64.79000,     -10.12405
679.971,64.84167,     -10.12610
680.487,64.89333,     -10.12815
681.008,64.94500,     -10.12949
681.527,64.99667,     -10.13084
682.04,65.04833,     -10.13200
682.554,65.10000,     -10.13295
683.069,65.15167,     -10.13390
683.584,65.20333,     -10.13475
684.102,65.25500,     -10.13550
684.622,65.30667,     -10.13635
685.141,65.35833,     -10.13770
685.657,65.41000,     -10.13865
686.174,65.46167,     -10.13960
686.689,65.51333,     -10.14075
687.207,65.56500,     -10.14199
687.723,65.61667,     -10.14345
688.239,65.66833,     -10.14550
688.754,65.72000,     -10.14834
689.274,65.77167,     -10.15099
689.79,65.82333,     -10.15294
690.307,65.87500,     -10.15419
690.822,65.92667,     -10.15514
691.341,65.97833,     -10.15599
691.861,66.03000,     -10.15663
692.382,66.08167,     -10.15718
692.898,66.13333,     -10.15783
693.414,66.18500,     -10.15878
693.93,66.23667,     -10.15963
694.445,66.28833,     -10.16018
694.959,66.34000,     -10.16233
695.478,66.39167,     -10.16458
695.994,66.44333,     -10.16603
696.509,66.49500,     -10.16727
697.026,66.54667,     -10.16842
697.542,66.59833,     -10.16997
698.059,66.65000,     -10.17212
698.569,66.70167,     -10.17397
699.086,66.75333,     -10.17522
699.602,66.80500,     -10.17646
700.122,66.85667,     -10.17781
700.639,66.90833,     -10.17886
701.156,66.96000,     -10.18000
701.675,67.01167,     -10.18125
702.192,67.06333,     -10.18240
702.709,67.11500,     -10.18325
703.225,67.16667,     -10.18399
703.742,67.21833,     -10.18494
704.259,67.27000,     -10.18609
704.777,67.32167,     -10.18744
705.293,67.37333,     -10.18919
705.811,67.42500,     -10.19103
706.327,67.47667,     -10.19298
706.841,67.52833,     -10.19433
707.357,67.58000,     -10.19578
707.873,67.63167,     -10.19743
708.39,67.68333,     -10.19857
708.904,67.73500,     -10.19942
709.42,67.78667,     -10.20027
709.94,67.83833,     -10.20112
710.451,67.89000,     -10.20177
710.97,67.94167,     -10.20271
711.485,67.99333,     -10.20366
712.001,68.04500,     -10.20481
712.516,68.09667,     -10.20606
713.03,68.14833,     -10.20711
713.547,68.20000,     -10.20855
714.063,68.25167,     -10.21030
714.581,68.30333,     -10.21194
715.098,68.35500,     -10.21299
715.618,68.40667,     -10.21434
716.135,68.45833,     -10.21548
716.652,68.51000,     -10.21653
717.169,68.56167,     -10.21748
717.683,68.61333,     -10.21873
718.202,68.66500,     -10.22037
718.716,68.71667,     -10.22292
719.232,68.76833,     -10.22537
719.744,68.82000,     -10.22672
720.264,68.87167,     -10.22826
720.782,68.92333,     -10.22911
721.3,68.97500,     -10.22975
721.82,69.02667,     -10.23030
722.335,69.07833,     -10.23094
722.854,69.13000,     -10.23179
723.37,69.18167,     -10.23284
723.887,69.23333,     -10.23398
724.404,69.28500,     -10.23483
724.917,69.33667,     -10.23598
725.432,69.38833,     -10.23722
725.951,69.44000,     -10.23827
726.47,69.49167,     -10.23941
726.984,69.54333,     -10.24036
727.497,69.59500,     -10.24141
728.015,69.64667,     -10.24265
728.53,69.69833,     -10.24450
729.046,69.75000,     -10.24715
729.562,69.80167,     -10.24929
730.08,69.85333,     -10.25114
730.595,69.90500,     -10.25278
731.112,69.95667,     -10.25383
731.629,70.00833,     -10.25487
732.145,70.06000,     -10.25522
732.664,70.11167,     -10.25526
733.177,70.16333,     -10.25541
733.696,70.21500,     -10.25545
734.212,70.26667,     -10.25570
734.724,70.31833,     -10.25604
735.239,70.37000,     -10.25699
735.753,70.42167,     -10.25834
736.265,70.47333,     -10.26028
736.779,70.52500,     -10.26312
737.3,70.57667,     -10.26467
737.813,70.62833,     -10.26661
738.33,70.68000,     -10.26895
738.849,70.73167,     -10.27170
739.369,70.78333,     -10.27384
739.889,70.83500,     -10.27498
740.408,70.88667,     -10.27532
740.926,70.93833,     -10.27576
741.443,70.99000,     -10.27621
741.96,71.04167,     -10.27675
742.475,71.09333,     -10.27730
742.99,71.14500,     -10.27814
743.507,71.19667,     -10.27888
744.025,71.24833,     -10.27982
744.54,71.30000,     -10.28077
745.056,71.35167,     -10.28161
745.574,71.40333,     -10.28235
746.094,71.45500,     -10.28259
746.611,71.50667,     -10.28293
747.127,71.55833,     -10.28337
747.644,71.61000,     -10.28432
748.16,71.66167,     -10.28546
748.676,71.71333,     -10.28640
749.195,71.76500,     -10.28704
749.715,71.81667,     -10.28768
750.227,71.86833,     -10.28852
750.739,71.92000,     -10.28957
751.256,71.97167,     -10.29061
751.767,72.02333,     -10.29235
752.287,72.07500,     -10.29459
752.803,72.12667,     -10.29713
753.322,72.17833,     -10.29797
753.836,72.23000,     -10.29821
754.351,72.28167,     -10.29855
754.869,72.33333,     -10.29939
755.381,72.38500,     -10.30113
755.898,72.43667,     -10.30317
756.415,72.48833,     -10.30540
756.931,72.54000,     -10.30684
757.448,72.59167,     -10.30668
757.964,72.64333,     -10.30682
758.479,72.69500,     -10.30746
758.995,72.74667,     -10.30860
759.507,72.79833,     -10.30964
760.025,72.85000,     -10.31137
760.539,72.90167,     -10.31311
761.056,72.95333,     -10.31415
761.572,73.00500,     -10.31439
762.09,73.05667,     -10.31452
762.605,73.10833,     -10.31456
763.12,73.16000,     -10.31490
763.635,73.21167,     -10.31523
764.155,73.26333,     -10.31557
764.674,73.31500,     -10.31690
765.189,73.36667,     -10.31924
765.707,73.41833,     -10.32188
766.221,73.47000,     -10.32351
766.74,73.52167,     -10.32415
767.254,73.57333,     -10.32458
767.771,73.62500,     -10.32572
768.288,73.67667,     -10.32665
768.806,73.72833,     -10.32719
769.32,73.78000,     -10.32822
769.837,73.83167,     -10.32886
770.353,73.88333,     -10.32919
770.872,73.93500,     -10.32932
771.387,73.98667,     -10.32956
771.903,74.03833,     -10.32999
772.421,74.09000,     -10.33042
772.94,74.14167,     -10.33065
773.453,74.19333,     -10.33149
773.97,74.24500,     -10.33272
774.481,74.29667,     -10.33476
774.996,74.34833,     -10.33819
775.508,74.40000,     -10.34002
776.027,74.45167,     -10.34085
776.547,74.50333,     -10.34118
777.066,74.55500,     -10.34151
777.582,74.60667,     -10.34174
778.101,74.65833,     -10.34217
778.617,74.71000,     -10.34270
779.135,74.76167,     -10.34283
779.654,74.81333,     -10.34316
780.173,74.86500,     -10.34349
780.688,74.91667,     -10.34452
781.204,74.96833,     -10.34565
781.716,75.02000,     -10.34628
782.235,75.07167,     -10.34771
782.75,75.12333,     -10.34954
783.267,75.17500,     -10.35136
783.785,75.22667,     -10.35269
784.304,75.27833,     -10.35352
784.819,75.33000,     -10.35435
785.336,75.38167,     -10.35477
785.856,75.43333,     -10.35500
786.371,75.48500,     -10.35533
786.889,75.53667,     -10.35565
787.407,75.58833,     -10.35628
787.922,75.64000,     -10.35710
788.441,75.69167,     -10.35763
788.961,75.74333,     -10.35845
789.475,75.79500,     -10.35968
789.99,75.84667,     -10.36151
790.502,75.89833,     -10.36273
791.021,75.95000,     -10.36376
791.539,76.00167,     -10.36348
792.058,76.05333,     -10.36370
792.576,76.10500,     -10.36472
793.095,76.15667,     -10.36614
793.611,76.20833,     -10.36687
794.127,76.26000,     -10.36719
794.645,76.31167,     -10.36751
795.163,76.36333,     -10.36824
795.681,76.41500,     -10.37006
796.196,76.46667,     -10.37128
796.712,76.51833,     -10.37190
797.227,76.57000,     -10.37242
797.746,76.62167,     -10.37274
798.261,76.67333,     -10.37286
798.774,76.72500,     -10.37299
799.288,76.77667,     -10.37291
799.498,76.79833,     -10.37284