File: data-raw/TGA/FF_TGA.csv
#EXPORTTYPE:                 ,DATA SINGLE
#FILE:                       ,FF.ngb-st9
#FORMAT:                     ,NETZSCH5
#FTYPE:                      ,ANSI
#IDENTITY:                   ,Saras
#DECIMAL:                    ,POINT
#SEPARATOR:                  ,COMMA
#MTYPE:                      ,TG
#INSTRUMENT:                 ,NETZSCH TG 209F1 Libra
#PROJECT:                    ,IL
#DATE/TIME:                  ,16/03/2017 9:48:43 AM (UTC+11)
#CORR. FILE:                 ,
#TEMPCAL:                    ,TCALZERO.TCX
#LABORATORY:                 ,Capture Lab
#OPERATOR:                   ,NJN
#REMARK:                     ,Training run
#SAMPLE:                     ,FF
#SAMPLE MASS /mg:            ,12.2350
#MATERIAL:                   ,KHCO3
#TYPE OF CRUCIBLE:           ,Al2O3
#SAMPLE CRUCIBLE MASS /mg:   ,311.9641
#REFERENCE CRUCIBLE MASS /mg:,
#M.RANGE /mg:                ,2000
#CORR. CODE:                 ,090
#RANGE:                      ,32°C/10.0(K/min)/800°C
#SEGMENT:                    ,S1/1
#SEG. 1:                     ,32°C/10.0(K/min)/800°C

##Temp./°C,Time/min,Mass loss/mg
 31.90200, 0.00000,-2.037716e-003
 31.90100, 0.05167,-2.420395e-003
 31.95300, 0.10333,-2.982265e-003
 32.25400, 0.15500,-2.513135e-003
 32.63200, 0.20667,-3.441656e-004
 32.98000, 0.25833, 1.150471e-004
 33.33200, 0.31000,-1.805972e-004
 33.72800, 0.36167,-3.230192e-004
 34.17100, 0.41333,-5.502531e-004
 34.63800, 0.46500,-6.303746e-004
 35.13200, 0.51667,-9.285473e-004
 35.65100, 0.56833,-1.336344e-003
 36.20400, 0.62000,-1.819262e-003
 36.77400, 0.67167,-2.205173e-003
 37.36700, 0.72333,-2.773875e-003
 37.97300, 0.77500,-2.796818e-003
 38.59700, 0.82667,-3.314081e-003
 39.22900, 0.87833,-3.429564e-003
 39.86500, 0.93000,-3.775866e-003
 40.51100, 0.98167,-4.355894e-003
 41.15300, 1.03333,-4.974673e-003
 41.80000, 1.08500,-5.827614e-003
 42.43900, 1.13667,-6.794038e-003
 43.07300, 1.18833,-7.937450e-003
 43.70700, 1.24000,-9.545032e-003
 44.33000, 1.29167,-1.099076e-002
 44.93900, 1.34333,-1.231583e-002
 45.54500, 1.39500,-1.380906e-002
 46.13900, 1.44667,-1.570219e-002
 46.72500, 1.49833,-1.785041e-002
 47.30100, 1.55000,-1.972156e-002
 47.86300, 1.60167,-2.177104e-002
 48.42400, 1.65333,-2.345518e-002
 48.96700, 1.70500,-2.488567e-002
 49.50400, 1.75667,-2.704743e-002
 50.03600, 1.80833,-2.942567e-002
 50.56500, 1.86000,-3.203991e-002
 51.07900, 1.91167,-3.431810e-002
 51.59400, 1.96333,-3.724211e-002
 52.09900, 2.01500,-4.016913e-002
 52.60300, 2.06667,-4.322077e-002
 53.10000, 2.11833,-4.565008e-002
 53.59600, 2.17000,-4.842718e-002
 54.09800, 2.22167,-5.103829e-002
 54.59300, 2.27333,-5.392601e-002
 55.08700, 2.32500,-5.704030e-002
 55.58400, 2.37667,-5.978059e-002
 56.07700, 2.42833,-6.259605e-002
 56.57400, 2.48000,-6.523596e-002
 57.07400, 2.53167,-6.810261e-002
 57.57400, 2.58333,-7.115094e-002
 58.07600, 2.63500,-7.421358e-002
 58.57900, 2.68667,-7.726214e-002
 59.08300, 2.73833,-8.091798e-002
 59.59300, 2.79000,-8.459678e-002
 60.09600, 2.84167,-8.773612e-002
 60.60800, 2.89333,-9.150662e-002
 61.12000, 2.94500,-9.486864e-002
 61.63300, 2.99667,-9.872270e-002
 62.15200, 3.04833,      -0.10219
 62.66700, 3.10000,      -0.10624
 63.18200, 3.15167,      -0.10988
 63.70200, 3.20333,      -0.11383
 64.22400, 3.25500,      -0.11768
 64.74300, 3.30667,      -0.12141
 65.26700, 3.35833,      -0.12556
 65.78700, 3.41000,      -0.12929
 66.30900, 3.46167,      -0.13332
 66.83100, 3.51333,      -0.13753
 67.35300, 3.56500,      -0.14174
 67.87600, 3.61667,      -0.14576
 68.39700, 3.66833,      -0.15018
 68.91900, 3.72000,      -0.15410
 69.44000, 3.77167,      -0.15820
 69.95700, 3.82333,      -0.16270
 70.48200, 3.87500,      -0.16682
 71.00300, 3.92667,      -0.17122
 71.52100, 3.97833,      -0.17531
 72.04000, 4.03000,      -0.18023
 72.55900, 4.08167,      -0.18462
 73.08100, 4.13333,      -0.18924
 73.59700, 4.18500,      -0.19373
 74.11400, 4.23667,      -0.19782
 74.63200, 4.28833,      -0.20232
 75.15000, 4.34000,      -0.20623
 75.66500, 4.39167,      -0.21032
 76.18500, 4.44333,      -0.21434
 76.70300, 4.49500,      -0.21864
 77.22200, 4.54667,      -0.22245
 77.73700, 4.59833,      -0.22645
 78.25600, 4.65000,      -0.23065
 78.77500, 4.70167,      -0.23465
 79.28800, 4.75333,      -0.23873
 79.80500, 4.80500,      -0.24243
 80.32200, 4.85667,      -0.24624
 80.84000, 4.90833,      -0.25013
 81.35400, 4.96000,      -0.25393
 81.87300, 5.01167,      -0.25793
 82.39100, 5.06333,      -0.26184
 82.90700, 5.11500,      -0.26543
 83.42200, 5.16667,      -0.26912
 83.94200, 5.21833,      -0.27283
 84.46100, 5.27000,      -0.27632
 84.97600, 5.32167,      -0.28012
 85.49100, 5.37333,      -0.28361
 86.00800, 5.42500,      -0.28720
 86.52900, 5.47667,      -0.29022
 87.04700, 5.52833,      -0.29331
 87.56400, 5.58000,      -0.29671
 88.08700, 5.63167,      -0.29922
 88.60600, 5.68333,      -0.30221
 89.12400, 5.73500,      -0.30460
 89.64100, 5.78667,      -0.30769
 90.16000, 5.83833,      -0.31068
 90.67500, 5.89000,      -0.31365
 91.19400, 5.94167,      -0.31655
 91.70700, 5.99333,      -0.31933
 92.22400, 6.04500,      -0.32232
 92.74300, 6.09667,      -0.32513
 93.26300, 6.14833,      -0.32763
 93.78400, 6.20000,      -0.33013
 94.29800, 6.25167,      -0.33251
 94.81400, 6.30333,      -0.33459
 95.33300, 6.35500,      -0.33669
 95.85000, 6.40667,      -0.33878
 96.37000, 6.45833,      -0.34118
 96.88200, 6.51000,      -0.34296
 97.40300, 6.56167,      -0.34456
 97.91700, 6.61333,      -0.34665
 98.43600, 6.66500,      -0.34864
 98.95500, 6.71667,      -0.35073
 99.47300, 6.76833,      -0.35293
 99.99100, 6.82000,      -0.35463
100.509, 6.87167,      -0.35605
101.023, 6.92333,      -0.35774
101.542, 6.97500,      -0.35946
102.057, 7.02667,      -0.36106
102.573, 7.07833,      -0.36257
103.086, 7.13000,      -0.36407
103.605, 7.18167,      -0.36559
104.12, 7.23333,      -0.36709
104.635, 7.28500,      -0.36849
105.156, 7.33667,      -0.36952
105.672, 7.38833,      -0.37082
106.19, 7.44000,      -0.37202
106.704, 7.49167,      -0.37311
107.22, 7.54333,      -0.37421
107.733, 7.59500,      -0.37520
108.247, 7.64667,      -0.37648
108.763, 7.69833,      -0.37769
109.282, 7.75000,      -0.37880
109.797, 7.80167,      -0.37999
110.312, 7.85333,      -0.38117
110.826, 7.90500,      -0.38256
111.341, 7.95667,      -0.38375
111.858, 8.00833,      -0.38505
112.372, 8.06000,      -0.38613
112.89, 8.11167,      -0.38722
113.405, 8.16333,      -0.38841
113.926, 8.21500,      -0.38950
114.439, 8.26667,      -0.39018
114.956, 8.31833,      -0.39106
115.474, 8.37000,      -0.39166
115.992, 8.42167,      -0.39233
116.51, 8.47333,      -0.39291
117.025, 8.52500,      -0.39359
117.544, 8.57667,      -0.39447
118.06, 8.62833,      -0.39524
118.579, 8.68000,      -0.39592
119.093, 8.73167,      -0.39648
119.606, 8.78333,      -0.39745
120.125, 8.83500,      -0.39823
120.639, 8.88667,      -0.39939
121.155, 8.93833,      -0.40076
121.67, 8.99000,      -0.40202
122.19, 9.04167,      -0.40311
122.702, 9.09333,      -0.40416
123.221, 9.14500,      -0.40504
123.738, 9.19667,      -0.40590
124.255, 9.24833,      -0.40646
124.773, 9.30000,      -0.40704
125.289, 9.35167,      -0.40760
125.806, 9.40333,      -0.40846
126.325, 9.45500,      -0.40932
126.84, 9.50667,      -0.41038
127.359, 9.55833,      -0.41134
127.874, 9.61000,      -0.41229
128.391, 9.66167,      -0.41315
128.904, 9.71333,      -0.41409
129.424, 9.76500,      -0.41496
129.937, 9.81667,      -0.41591
130.457, 9.86833,      -0.41708
130.974, 9.92000,      -0.41813
131.492, 9.97167,      -0.41928
132.007,10.02333,      -0.42003
132.522,10.07500,      -0.42128
133.038,10.12667,      -0.42242
133.556,10.17833,      -0.42358
134.073,10.23000,      -0.42473
134.59,10.28167,      -0.42628
135.106,10.33333,      -0.42763
135.625,10.38500,      -0.42898
136.142,10.43667,      -0.43052
136.657,10.48833,      -0.43186
137.176,10.54000,      -0.43321
137.691,10.59167,      -0.43436
138.209,10.64333,      -0.43581
138.728,10.69500,      -0.43704
139.246,10.74667,      -0.43879
139.762,10.79833,      -0.44063
140.28,10.85000,      -0.44268
140.8,10.90167,      -0.44482
141.316,10.95333,      -0.44606
141.832,11.00500,      -0.44729
142.35,11.05667,      -0.44863
142.865,11.10833,      -0.44987
143.384,11.16000,      -0.45161
143.9,11.21167,      -0.45374
144.415,11.26333,      -0.45588
144.932,11.31500,      -0.45812
145.451,11.36667,      -0.46046
145.971,11.41833,      -0.46279
146.482,11.47000,      -0.46532
147.002,11.52167,      -0.46756
147.52,11.57333,      -0.47010
148.036,11.62500,      -0.47223
148.551,11.67667,      -0.47446
149.068,11.72833,      -0.47679
149.584,11.78000,      -0.47942
150.103,11.83167,      -0.48195
150.617,11.88333,      -0.48439
151.133,11.93500,      -0.48712
151.649,11.98667,      -0.48955
152.167,12.03833,      -0.49239
152.686,12.09000,      -0.49492
153.202,12.14167,      -0.49775
153.72,12.19333,      -0.50028
154.232,12.24500,      -0.50320
154.752,12.29667,      -0.50654
155.267,12.34833,      -0.50957
155.783,12.40000,      -0.51289
156.299,12.45167,      -0.51592
156.817,12.50333,      -0.51905
157.332,12.55500,      -0.52228
157.847,12.60667,      -0.52541
158.364,12.65833,      -0.52864
158.881,12.71000,      -0.53217
159.396,12.76167,      -0.53589
159.911,12.81333,      -0.53942
160.429,12.86500,      -0.54325
160.946,12.91667,      -0.54648
161.467,12.96833,      -0.54971
161.981,13.02000,      -0.55303
162.5,13.07167,      -0.55656
163.018,13.12333,      -0.56019
163.539,13.17500,      -0.56342
164.054,13.22667,      -0.56704
164.573,13.27833,      -0.57017
165.085,13.33000,      -0.57359
165.602,13.38167,      -0.57681
166.118,13.43333,      -0.58004
166.631,13.48500,      -0.58296
167.152,13.53667,      -0.58610
167.668,13.58833,      -0.58952
168.185,13.64000,      -0.59345
168.701,13.69167,      -0.59707
169.215,13.74333,      -0.60049
169.734,13.79500,      -0.60412
170.251,13.84667,      -0.60765
170.769,13.89833,      -0.61108
171.286,13.95000,      -0.61441
171.803,14.00167,      -0.61763
172.32,14.05333,      -0.62066
172.837,14.10500,      -0.62398
173.355,14.15667,      -0.62752
173.869,14.20833,      -0.63093
174.385,14.26000,      -0.63426
174.901,14.31167,      -0.63749
175.417,14.36333,      -0.64121
175.937,14.41500,      -0.64465
176.453,14.46667,      -0.64817
176.971,14.51833,      -0.65190
177.489,14.57000,      -0.65533
178.002,14.62167,      -0.65845
178.521,14.67333,      -0.66219
179.035,14.72500,      -0.66581
179.553,14.77667,      -0.66914
180.071,14.82833,      -0.67257
180.587,14.88000,      -0.67590
181.107,14.93167,      -0.67963
181.624,14.98333,      -0.68336
182.141,15.03500,      -0.68719
182.655,15.08667,      -0.69092
183.174,15.13833,      -0.69455
183.691,15.19000,      -0.69858
184.209,15.24167,      -0.70211
184.727,15.29333,      -0.70604
185.242,15.34500,      -0.70977
185.758,15.39667,      -0.71390
186.275,15.44833,      -0.71783
186.792,15.50000,      -0.72157
187.308,15.55167,      -0.72510
187.824,15.60333,      -0.72943
188.341,15.65500,      -0.73337
188.859,15.70667,      -0.73700
189.373,15.75833,      -0.74173
189.888,15.81000,      -0.74617
190.404,15.86167,      -0.75080
190.92,15.91333,      -0.75484
191.435,15.96500,      -0.75947
191.95,16.01667,      -0.76391
192.471,16.06833,      -0.76796
192.984,16.12000,      -0.77289
193.503,16.17167,      -0.77733
194.021,16.22333,      -0.78197
194.537,16.27500,      -0.78621
195.055,16.32667,      -0.79105
195.571,16.37833,      -0.79559
196.086,16.43000,      -0.80053
196.605,16.48167,      -0.80567
197.122,16.53333,      -0.81051
197.64,16.58500,      -0.81556
198.156,16.63667,      -0.82020
198.671,16.68833,      -0.82514
199.19,16.74000,      -0.83008
199.706,16.79167,      -0.83553
200.222,16.84333,      -0.84058
200.738,16.89500,      -0.84602
201.256,16.94667,      -0.85117
201.775,16.99833,      -0.85651
202.29,17.05000,      -0.86226
202.808,17.10167,      -0.86751
203.326,17.15333,      -0.87335
203.845,17.20500,      -0.87840
204.36,17.25667,      -0.88435
204.879,17.30833,      -0.89000
205.393,17.36000,      -0.89604
205.909,17.41167,      -0.90169
206.427,17.46333,      -0.90753
206.943,17.51500,      -0.91358
207.458,17.56667,      -0.91893
207.972,17.61833,      -0.92497
208.491,17.67000,      -0.93072
209.008,17.72167,      -0.93668
209.526,17.77333,      -0.94252
210.039,17.82500,      -0.94847
210.558,17.87667,      -0.95442
211.075,17.92833,      -0.96047
211.589,17.98000,      -0.96702
212.11,18.03167,      -0.97327
212.627,18.08333,      -0.97991
213.147,18.13500,      -0.98626
213.663,18.18667,      -0.99271
214.18,18.23833,      -0.99886
214.694,18.29000,      -1.00551
215.212,18.34167,      -1.01226
215.725,18.39333,      -1.01871
216.246,18.44500,      -1.02566
216.761,18.49667,      -1.03251
217.277,18.54833,      -1.03956
217.795,18.60000,      -1.04641
218.308,18.65167,      -1.05375
218.828,18.70333,      -1.06071
219.343,18.75500,      -1.06836
219.86,18.80667,      -1.07551
220.377,18.85833,      -1.08306
220.893,18.91000,      -1.09111
221.409,18.96167,      -1.09856
221.927,19.01333,      -1.10681
222.445,19.06500,      -1.11396
222.963,19.11667,      -1.12221
223.478,19.16833,      -1.12996
223.993,19.22000,      -1.13831
224.508,19.27167,      -1.14666
225.02,19.32333,      -1.15571
225.541,19.37500,      -1.16496
226.058,19.42667,      -1.17362
226.574,19.47833,      -1.18237
227.091,19.53000,      -1.19132
227.608,19.58167,      -1.20087
228.125,19.63333,      -1.21002
228.639,19.68500,      -1.22037
229.157,19.73667,      -1.23013
229.676,19.78833,      -1.24028
230.195,19.84000,      -1.25073
230.713,19.89167,      -1.26098
231.227,19.94333,      -1.27213
231.742,19.99500,      -1.28258
232.258,20.04667,      -1.29453
232.779,20.09833,      -1.30549
233.29,20.15000,      -1.31774
233.806,20.20167,      -1.32899
234.325,20.25333,      -1.34114
234.837,20.30500,      -1.35369
235.354,20.35667,      -1.36535
235.871,20.40833,      -1.37870
236.388,20.46000,      -1.39115
236.904,20.51167,      -1.40490
237.425,20.56333,      -1.43255
237.937,20.61500,      -1.44251
238.453,20.66667,      -1.45336
238.969,20.71833,      -1.46581
239.487,20.77000,      -1.49076
240.001,20.82167,      -1.50021
240.523,20.87333,      -1.51237
241.041,20.92500,      -1.52422
241.559,20.97667,      -1.54877
242.076,21.02833,      -1.55963
242.59,21.08000,      -1.58418
243.107,21.13167,      -1.60103
243.621,21.18333,      -1.61758
244.137,21.23500,      -1.63503
244.654,21.28667,      -1.65198
245.168,21.33833,      -1.67014
245.687,21.39000,      -1.68709
246.204,21.44167,      -1.70574
246.721,21.49333,      -1.72249
247.24,21.54500,      -1.74045
247.754,21.59667,      -1.75760
248.271,21.64833,      -1.77715
248.787,21.70000,      -1.79680
249.301,21.75167,      -1.81495
249.819,21.80333,      -1.83471
250.336,21.85500,      -1.85376
250.852,21.90667,      -1.87311
251.37,21.95833,      -1.89226
251.885,22.01000,      -1.91271
252.398,22.06167,      -1.93157
252.919,22.11333,      -1.95202
253.439,22.16500,      -1.97237
253.952,22.21667,      -1.99182
254.47,22.26833,      -2.01258
254.986,22.32000,      -2.03283
255.502,22.37167,      -2.05368
256.02,22.42333,      -2.07433
256.534,22.47500,      -2.09588
257.052,22.52667,      -2.11653
257.562,22.57833,      -2.13768
258.08,22.63000,      -2.15993
258.595,22.68167,      -2.17989
259.111,22.73333,      -2.20214
259.63,22.78500,      -2.22289
260.146,22.83667,      -2.24474
260.663,22.88833,      -2.26489
261.179,22.94000,      -2.28714
261.695,22.99167,      -2.30819
262.213,23.04333,      -2.33004
262.73,23.09500,      -2.35060
263.246,23.14667,      -2.37255
263.763,23.19833,      -2.39460
264.277,23.25000,      -2.41515
264.793,23.30167,      -2.43730
265.311,23.35333,      -2.45825
265.829,23.40500,      -2.48080
266.342,23.45667,      -2.50175
266.857,23.50833,      -2.52340
267.373,23.56000,      -2.54405
267.892,23.61167,      -2.56670
268.41,23.66333,      -2.58855
268.925,23.71500,      -2.60990
269.445,23.76667,      -2.63195
269.962,23.81833,      -2.65250
270.478,23.87000,      -2.67445
270.994,23.92167,      -2.69490
271.512,23.97333,      -2.71695
272.025,24.02500,      -2.73869
272.545,24.07667,      -2.75864
273.058,24.12833,      -2.78059
273.575,24.18000,      -2.80124
274.089,24.23167,      -2.82349
274.608,24.28333,      -2.84364
275.125,24.33500,      -2.86549
275.64,24.38667,      -2.88633
276.16,24.43833,      -2.90768
276.675,24.49000,      -2.92783
277.19,24.54167,      -2.94908
277.706,24.59333,      -2.97033
278.222,24.64500,      -2.99017
278.739,24.69667,      -3.01192
279.254,24.74833,      -3.03217
279.772,24.80000,      -3.05302
280.291,24.85167,      -3.07326
280.807,24.90333,      -3.09501
281.327,24.95500,      -3.11546
281.841,25.00667,      -3.13680
282.359,25.05833,      -3.15815
282.877,25.11000,      -3.17780
283.394,25.16167,      -3.19954
283.908,25.21333,      -3.21909
284.423,25.26500,      -3.24103
284.939,25.31667,      -3.26088
285.458,25.36833,      -3.28273
285.969,25.42000,      -3.30277
286.486,25.47167,      -3.32442
287.002,25.52333,      -3.34586
287.517,25.57500,      -3.36661
288.064,25.62667,      -3.38825
288.579,25.67833,      -3.40889
289.09,25.73000,      -3.43134
289.601,25.78167,      -3.45238
290.114,25.83333,      -3.47453
290.621,25.88500,      -3.49517
291.134,25.93667,      -3.51732
291.648,25.98833,      -3.54036
292.162,26.04000,      -3.56110
292.675,26.09167,      -3.58425
293.191,26.14333,      -3.60589
293.708,26.19500,      -3.62893
294.225,26.24667,      -3.65127
294.744,26.29833,      -3.67432
295.256,26.35000,      -3.69616
295.779,26.40167,      -3.72070
296.294,26.45333,      -3.74514
296.808,26.50500,      -3.76778
297.326,26.55667,      -3.79272
297.844,26.60833,      -3.81656
298.362,26.66000,      -3.84201
298.88,26.71167,      -3.86555
299.396,26.76333,      -3.89199
299.912,26.81500,      -3.91843
300.432,26.86667,      -3.94377
300.948,26.91833,      -3.97081
301.465,26.97000,      -3.99675
301.98,27.02167,      -4.02489
302.498,27.07333,      -4.05203
303.016,27.12500,      -4.08087
303.53,27.17667,      -4.10821
304.045,27.22833,      -4.13825
304.561,27.28000,      -4.16639
305.076,27.33167,      -4.19763
305.594,27.38333,      -4.22827
306.111,27.43500,      -4.25841
306.626,27.48667,      -4.29015
307.141,27.53833,      -4.32089
307.66,27.59000,      -4.35453
308.178,27.64167,      -4.38677
308.693,27.69333,      -4.42171
309.211,27.74500,      -4.45535
309.729,27.79667,      -4.49109
310.248,27.84833,      -4.52813
310.761,27.90000,      -4.56307
311.278,27.95167,      -4.60101
311.796,28.00333,      -4.63695
312.311,28.05500,      -4.67589
312.829,28.10667,      -4.71263
313.345,28.15833,      -4.75287
313.861,28.21000,      -4.79061
314.38,28.26167,      -4.83145
314.896,28.31333,      -4.87259
315.414,28.36500,      -4.91163
315.932,28.41667,      -4.95407
316.45,28.46833,      -4.99351
316.967,28.52000,      -5.03625
317.481,28.57167,      -5.07679
317.993,28.62333,      -5.11983
318.51,28.67500,      -5.16007
319.026,28.72667,      -5.20341
319.54,28.77833,      -5.24635
320.06,28.83000,      -5.28679
320.578,28.88167,      -5.33003
321.095,28.93333,      -5.36997
321.616,28.98500,      -5.41241
322.137,29.03667,      -5.45185
322.653,29.08833,      -5.49329
323.164,29.14000,      -5.53193
323.678,29.19167,      -5.57217
324.193,29.24333,      -5.61191
324.706,29.29500,      -5.64825
325.223,29.34667,      -5.68679
325.739,29.39833,      -5.72183
326.257,29.45000,      -5.75867
326.772,29.50167,      -5.79111
327.291,29.55333,      -5.82544
327.807,29.60500,      -5.85668
328.323,29.65667,      -5.88912
328.837,29.70833,      -5.91947
329.355,29.76000,      -5.94680
329.871,29.81167,      -5.97534
330.386,29.86333,      -6.00078
330.903,29.91500,      -6.02652
331.418,29.96667,      -6.04946
331.936,30.01833,      -6.07270
332.449,30.07000,      -6.09344
332.965,30.12167,      -6.11438
333.48,30.17333,      -6.13482
333.998,30.22500,      -6.15245
334.512,30.27667,      -6.17039
335.025,30.32833,      -6.18673
335.539,30.38000,      -6.20007
336.056,30.43167,      -6.21011
336.576,30.48333,      -6.22305
337.087,30.53500,      -6.23479
337.607,30.58667,      -6.25372
338.125,30.63833,      -6.26876
338.643,30.69000,      -6.27790
339.161,30.74167,      -6.28854
339.676,30.79333,      -6.29868
340.193,30.84500,      -6.31021
340.712,30.89667,      -6.32065
341.23,30.94833,      -6.33189
341.748,31.00000,      -6.34203
342.26,31.05167,      -6.35267
342.777,31.10333,      -6.36310
343.3,31.15500,      -6.37234
343.818,31.20667,      -6.38227
344.34,31.25833,      -6.39141
344.852,31.31000,      -6.40035
345.367,31.36167,      -6.40899
345.883,31.41333,      -6.41793
346.396,31.46500,      -6.42647
346.911,31.51667,      -6.43530
347.425,31.56833,      -6.44354
347.94,31.62000,      -6.45198
348.455,31.67167,      -6.46021
348.973,31.72333,      -6.46815
349.49,31.77500,      -6.47678
350.01,31.82667,      -6.48472
350.527,31.87833,      -6.49275
351.043,31.93000,      -6.49979
351.559,31.98167,      -6.50753
352.076,32.03333,      -6.51496
352.59,32.08500,      -6.52260
353.105,32.13667,      -6.52994
353.62,32.18833,      -6.53687
354.137,32.24000,      -6.54421
354.652,32.29167,      -6.55084
355.17,32.34333,      -6.55818
355.684,32.39500,      -6.56511
356.201,32.44667,      -6.57205
356.718,32.49833,      -6.57938
357.233,32.55000,      -6.58602
357.75,32.60167,      -6.59325
358.267,32.65333,      -6.59989
358.784,32.70500,      -6.60672
359.299,32.75667,      -6.61326
359.813,32.80833,      -6.62019
360.331,32.86000,      -6.62673
360.847,32.91167,      -6.63356
361.363,32.96333,      -6.63959
361.882,33.01500,      -6.64632
362.399,33.06667,      -6.65276
362.918,33.11833,      -6.65889
363.435,33.17000,      -6.66552
363.953,33.22167,      -6.67146
364.468,33.27333,      -6.67789
364.988,33.32500,      -6.68382
365.502,33.37667,      -6.69006
366.017,33.42833,      -6.69599
366.535,33.48000,      -6.70172
367.047,33.53167,      -6.70816
367.565,33.58333,      -6.71429
368.08,33.63500,      -6.72052
368.595,33.68667,      -6.72615
369.109,33.73833,      -6.73229
369.623,33.79000,      -6.73802
370.139,33.84167,      -6.74375
370.661,33.89333,      -6.74908
371.176,33.94500,      -6.75481
371.692,33.99667,      -6.76094
372.209,34.04833,      -6.76667
372.723,34.10000,      -6.77230
373.239,34.15167,      -6.77743
373.752,34.20333,      -6.78286
374.272,34.25500,      -6.78889
374.787,34.30667,      -6.79472
375.307,34.35833,      -6.79995
375.823,34.41000,      -6.80568
376.338,34.46167,      -6.81131
376.859,34.51333,      -6.81644
377.37,34.56500,      -6.82187
377.887,34.61667,      -6.82680
378.402,34.66833,      -6.83223
378.92,34.72000,      -6.83746
379.435,34.77167,      -6.84309
379.952,34.82333,      -6.84831
380.468,34.87500,      -6.85384
380.987,34.92667,      -6.85887
381.506,34.97833,      -6.86420
382.021,35.03000,      -6.86952
382.538,35.08167,      -6.87445
383.055,35.13333,      -6.87948
383.57,35.18500,      -6.88461
384.088,35.23667,      -6.89003
384.605,35.28833,      -6.89516
385.124,35.34000,      -6.90018
385.643,35.39167,      -6.90521
386.16,35.44333,      -6.90993
386.677,35.49500,      -6.91486
387.197,35.54667,      -6.91959
387.714,35.59833,      -6.92451
388.228,35.65000,      -6.92924
388.742,35.70167,      -6.93437
389.258,35.75333,      -6.93919
389.767,35.80500,      -6.94472
390.28,35.85667,      -6.95005
390.792,35.90833,      -6.95487
391.309,35.96000,      -6.95980
391.826,36.01167,      -6.96422
392.343,36.06333,      -6.96924
392.86,36.11500,      -6.97346
393.376,36.16667,      -6.97849
393.894,36.21833,      -6.98311
394.411,36.27000,      -6.98823
394.929,36.32167,      -6.99335
395.443,36.37333,      -6.99768
395.961,36.42500,      -7.00270
396.476,36.47667,      -7.00642
396.992,36.52833,      -7.01194
397.504,36.58000,      -7.01687
398.019,36.63167,      -7.02149
398.534,36.68333,      -7.02531
399.05,36.73500,      -7.03083
399.568,36.78667,      -7.03565
400.081,36.83833,      -7.03997
400.596,36.89000,      -7.04459
401.115,36.94167,      -7.04901
401.633,36.99333,      -7.05383
402.145,37.04500,      -7.05835
402.661,37.09667,      -7.06277
403.178,37.14833,      -7.06669
403.697,37.20000,      -7.07141
404.213,37.25167,      -7.07573
404.731,37.30333,      -7.07975
405.246,37.35500,      -7.08467
405.764,37.40667,      -7.08909
406.282,37.45833,      -7.09440
406.798,37.51000,      -7.09842
407.313,37.56167,      -7.10294
407.83,37.61333,      -7.10726
408.347,37.66500,      -7.11138
408.863,37.71667,      -7.11650
409.378,37.76833,      -7.12122
409.893,37.82000,      -7.12594
410.411,37.87167,      -7.13026
410.922,37.92333,      -7.13448
411.437,37.97500,      -7.13830
411.952,38.02667,      -7.14211
412.468,38.07833,      -7.14613
412.985,38.13000,      -7.15044
413.502,38.18167,      -7.15446
414.02,38.23333,      -7.15878
414.536,38.28500,      -7.16309
415.053,38.33667,      -7.16721
415.572,38.38833,      -7.17173
416.086,38.44000,      -7.17594
416.603,38.49167,      -7.18056
417.121,38.54333,      -7.18448
417.635,38.59500,      -7.18879
418.151,38.64667,      -7.19261
418.672,38.69833,      -7.19642
419.187,38.75000,      -7.20004
419.702,38.80167,      -7.20406
420.221,38.85333,      -7.20837
420.735,38.90500,      -7.21229
421.254,38.95667,      -7.21630
421.77,39.00833,      -7.22052
422.285,39.06000,      -7.22483
422.803,39.11167,      -7.22885
423.319,39.16333,      -7.23216
423.838,39.21500,      -7.23618
424.354,39.26667,      -7.24009
424.87,39.31833,      -7.24401
425.387,39.37000,      -7.24762
425.904,39.42167,      -7.25194
426.418,39.47333,      -7.25615
426.933,39.52500,      -7.26027
427.448,39.57667,      -7.26428
427.965,39.62833,      -7.26799
428.483,39.68000,      -7.27150
428.997,39.73167,      -7.27572
429.516,39.78333,      -7.27973
430.032,39.83500,      -7.28365
430.546,39.88667,      -7.28756
431.064,39.93833,      -7.29117
431.579,39.99000,      -7.29509
432.099,40.04167,      -7.29890
432.617,40.09333,      -7.30241
433.134,40.14500,      -7.30612
433.65,40.19667,      -7.30973
434.165,40.24833,      -7.31345
434.681,40.30000,      -7.31706
435.196,40.35167,      -7.32117
435.711,40.40333,      -7.32489
436.228,40.45500,      -7.32860
436.743,40.50667,      -7.33191
437.259,40.55833,      -7.33492
437.778,40.61000,      -7.33793
438.292,40.66167,      -7.34314
438.811,40.71333,      -7.34675
439.328,40.76500,      -7.34976
439.845,40.81667,      -7.35317
440.363,40.86833,      -7.35698
440.877,40.92000,      -7.36070
441.394,40.97167,      -7.36441
441.909,41.02333,      -7.36812
442.423,41.07500,      -7.37163
442.94,41.12667,      -7.37514
443.454,41.17833,      -7.37845
443.97,41.23000,      -7.38166
444.49,41.28167,      -7.38477
445.006,41.33333,      -7.38798
445.522,41.38500,      -7.39149
446.038,41.43667,      -7.39490
446.552,41.48833,      -7.39801
447.067,41.54000,      -7.40142
447.583,41.59167,      -7.40473
448.096,41.64333,      -7.40814
448.611,41.69500,      -7.41135
449.13,41.74667,      -7.41485
449.644,41.79833,      -7.41816
450.163,41.85000,      -7.42117
450.678,41.90167,      -7.42418
451.198,41.95333,      -7.42708
451.712,42.00500,      -7.43059
452.227,42.05667,      -7.43400
452.746,42.10833,      -7.43721
453.264,42.16000,      -7.44062
453.779,42.21167,      -7.44413
454.29,42.26333,      -7.44704
454.809,42.31500,      -7.45044
455.323,42.36667,      -7.45385
455.841,42.41833,      -7.45666
456.357,42.47000,      -7.45946
456.873,42.52167,      -7.46247
457.39,42.57333,      -7.46588
457.906,42.62500,      -7.46918
458.423,42.67667,      -7.47239
458.939,42.72833,      -7.47570
459.457,42.78000,      -7.47910
459.976,42.83167,      -7.48231
460.492,42.88333,      -7.48501
461.01,42.93500,      -7.48792
461.526,42.98667,      -7.49082
462.042,43.03833,      -7.49403
462.557,43.09000,      -7.49664
463.078,43.14167,      -7.49944
463.592,43.19333,      -7.50185
464.11,43.24500,      -7.50455
464.624,43.29667,      -7.50756
465.139,43.34833,      -7.51097
465.657,43.40000,      -7.51477
466.174,43.45167,      -7.51817
466.69,43.50333,      -7.52118
467.206,43.55500,      -7.52408
467.722,43.60667,      -7.52709
468.239,43.65833,      -7.52959
468.759,43.71000,      -7.53189
469.277,43.76167,      -7.53409
469.792,43.81333,      -7.53650
470.311,43.86500,      -7.53940
470.827,43.91667,      -7.54230
471.343,43.96833,      -7.54531
471.858,44.02000,      -7.54842
472.375,44.07167,      -7.55152
472.89,44.12333,      -7.55402
473.404,44.17500,      -7.55703
473.917,44.22667,      -7.55903
474.434,44.27833,      -7.56163
474.951,44.33000,      -7.56413
475.469,44.38167,      -7.56714
475.986,44.43333,      -7.57044
476.5,44.48500,      -7.57284
477.016,44.53667,      -7.57534
477.533,44.58833,      -7.57774
478.05,44.64000,      -7.58045
478.565,44.69167,      -7.58305
479.081,44.74333,      -7.58595
479.597,44.79500,      -7.58915
480.112,44.84667,      -7.59166
480.629,44.89833,      -7.59456
481.143,44.95000,      -7.59736
481.658,45.00167,      -7.59996
482.177,45.05333,      -7.60216
482.691,45.10500,      -7.60456
483.206,45.15667,      -7.60726
483.724,45.20833,      -7.60966
484.241,45.26000,      -7.61196
484.759,45.31167,      -7.61436
485.275,45.36333,      -7.61726
485.79,45.41500,      -7.61976
486.309,45.46667,      -7.62246
486.826,45.51833,      -7.62486
487.341,45.57000,      -7.62796
487.857,45.62167,      -7.63116
488.37,45.67333,      -7.63427
488.886,45.72500,      -7.63736
489.401,45.77667,      -7.63986
489.915,45.82833,      -7.64246
490.431,45.88000,      -7.64476
490.951,45.93167,      -7.64696
491.466,45.98333,      -7.64886
491.984,46.03500,      -7.65085
492.504,46.08667,      -7.65275
493.018,46.13833,      -7.65455
493.534,46.19000,      -7.65655
494.051,46.24167,      -7.65855
494.57,46.29333,      -7.66074
495.09,46.34500,      -7.66284
495.605,46.39667,      -7.66524
496.123,46.44833,      -7.66743
496.642,46.50000,      -7.66993
497.158,46.55167,      -7.67243
497.671,46.60333,      -7.67493
498.185,46.65500,      -7.67733
498.699,46.70667,      -7.67993
499.213,46.75833,      -7.68253
499.729,46.81000,      -7.68522
500.244,46.86167,      -7.68812
500.759,46.91333,      -7.69031
501.28,46.96500,      -7.69301
501.794,47.01667,      -7.69541
502.307,47.06833,      -7.69790
502.83,47.12000,      -7.70059
503.346,47.17167,      -7.70259
503.862,47.22333,      -7.70499
504.375,47.27500,      -7.70699
504.892,47.32667,      -7.70878
505.406,47.37833,      -7.71028
505.926,47.43000,      -7.71227
506.445,47.48167,      -7.71457
506.963,47.53333,      -7.71686
507.481,47.58500,      -7.71946
508,47.63667,      -7.72165
508.516,47.68833,      -7.72415
509.033,47.74000,      -7.72614
509.55,47.79167,      -7.72824
510.063,47.84333,      -7.73034
510.579,47.89500,      -7.73274
511.096,47.94667,      -7.73513
511.612,47.99833,      -7.73713
512.13,48.05000,      -7.73972
512.647,48.10167,      -7.74191
513.164,48.15333,      -7.74380
513.68,48.20500,      -7.74550
514.195,48.25667,      -7.74780
514.71,48.30833,      -7.74989
515.224,48.36000,      -7.75219
515.737,48.41167,      -7.75399
516.255,48.46333,      -7.75618
516.771,48.51500,      -7.75807
517.287,48.56667,      -7.75996
517.801,48.61833,      -7.76226
518.321,48.67000,      -7.76415
518.835,48.72167,      -7.76645
519.351,48.77333,      -7.76854
519.87,48.82500,      -7.77093
520.389,48.87667,      -7.77312
520.909,48.92833,      -7.77551
521.427,48.98000,      -7.77780
521.944,49.03167,      -7.77980
522.463,49.08333,      -7.78189
522.981,49.13500,      -7.78408
523.494,49.18667,      -7.78648
524.007,49.23833,      -7.78888
524.527,49.29000,      -7.79087
525.042,49.34167,      -7.79286
525.557,49.39333,      -7.79505
526.075,49.44500,      -7.79715
526.593,49.49667,      -7.79924
527.108,49.54833,      -7.80133
527.626,49.60000,      -7.80322
528.143,49.65167,      -7.80491
528.663,49.70333,      -7.80660
529.178,49.75500,      -7.80879
529.694,49.80667,      -7.81089
530.209,49.85833,      -7.81318
530.724,49.91000,      -7.81537
531.238,49.96167,      -7.81747
531.757,50.01333,      -7.81945
532.277,50.06500,      -7.82134
532.792,50.11667,      -7.82293
533.308,50.16833,      -7.82493
533.824,50.22000,      -7.82682
534.339,50.27167,      -7.82871
534.856,50.32333,      -7.83070
535.373,50.37500,      -7.83269
535.889,50.42667,      -7.83458
536.405,50.47833,      -7.83667
536.922,50.53000,      -7.83806
537.441,50.58167,      -7.83995
537.955,50.63333,      -7.84244
538.472,50.68500,      -7.84493
538.987,50.73667,      -7.84622
539.502,50.78833,      -7.84781
540.018,50.84000,      -7.85010
540.536,50.89167,      -7.85239
541.052,50.94333,      -7.85448
541.566,50.99500,      -7.85667
542.083,51.04667,      -7.85816
542.602,51.09833,      -7.86044
543.119,51.15000,      -7.86283
543.636,51.20167,      -7.86492
544.152,51.25333,      -7.86681
544.666,51.30500,      -7.86900
545.181,51.35667,      -7.87089
545.699,51.40833,      -7.87268
546.217,51.46000,      -7.87386
546.734,51.51167,      -7.87525
547.249,51.56333,      -7.87654
547.766,51.61500,      -7.87823
548.283,51.66667,      -7.87992
548.799,51.71833,      -7.88210
549.315,51.77000,      -7.88449
549.832,51.82167,      -7.88608
550.347,51.87333,      -7.88826
550.864,51.92500,      -7.89015
551.381,51.97667,      -7.89174
551.896,52.02833,      -7.89313
552.416,52.08000,      -7.89531
552.932,52.13167,      -7.89719
553.45,52.18333,      -7.89928
553.963,52.23500,      -7.90107
554.479,52.28667,      -7.90236
554.998,52.33833,      -7.90384
555.515,52.39000,      -7.90552
556.029,52.44167,      -7.90701
556.547,52.49333,      -7.90890
557.064,52.54500,      -7.91098
557.581,52.59667,      -7.91257
558.1,52.64833,      -7.91395
558.618,52.70000,      -7.91603
559.136,52.75167,      -7.91802
559.651,52.80333,      -7.92020
560.167,52.85500,      -7.92219
560.683,52.90667,      -7.92388
561.199,52.95833,      -7.92506
561.716,53.01000,      -7.92624
562.232,53.06167,      -7.92763
562.745,53.11333,      -7.92901
563.266,53.16500,      -7.93049
563.78,53.21667,      -7.93278
564.298,53.26833,      -7.93506
564.813,53.32000,      -7.93714
565.332,53.37167,      -7.93903
565.848,53.42333,      -7.94031
566.364,53.47500,      -7.94159
566.885,53.52667,      -7.94247
567.4,53.57833,      -7.94315
567.916,53.63000,      -7.94534
568.436,53.68167,      -7.94782
568.949,53.73333,      -7.95000
569.465,53.78500,      -7.95158
569.982,53.83667,      -7.95336
570.498,53.88833,      -7.95525
571.012,53.94000,      -7.95763
571.532,53.99167,      -7.95921
572.044,54.04333,      -7.96109
572.56,54.09500,      -7.96287
573.078,54.14667,      -7.96455
573.598,54.19833,      -7.96573
574.116,54.25000,      -7.96681
574.633,54.30167,      -7.96799
575.15,54.35333,      -7.96917
575.669,54.40500,      -7.97045
576.186,54.45667,      -7.97163
576.702,54.50833,      -7.97281
577.219,54.56000,      -7.97419
577.732,54.61167,      -7.97607
578.251,54.66333,      -7.97835
578.766,54.71500,      -7.98033
579.284,54.76667,      -7.98231
579.796,54.81833,      -7.98379
580.316,54.87000,      -7.98556
580.833,54.92167,      -7.98724
581.351,54.97333,      -7.98862
581.863,55.02500,      -7.98980
582.378,55.07667,      -7.99098
582.892,55.12833,      -7.99226
583.409,55.18000,      -7.99383
583.922,55.23167,      -7.99601
584.439,55.28333,      -7.99769
584.956,55.33500,      -7.99986
585.474,55.38667,      -8.00124
585.99,55.43833,      -8.00251
586.509,55.49000,      -8.00359
587.027,55.54167,      -8.00486
587.547,55.59333,      -8.00584
588.063,55.64500,      -8.00682
588.581,55.69667,      -8.00819
589.095,55.74833,      -8.00977
589.612,55.80000,      -8.01094
590.125,55.85167,      -8.01282
590.645,55.90333,      -8.01489
591.163,55.95500,      -8.01647
591.673,56.00667,      -8.01765
592.191,56.05833,      -8.01882
592.705,56.11000,      -8.02019
593.227,56.16167,      -8.02146
593.741,56.21333,      -8.02294
594.262,56.26500,      -8.02471
594.777,56.31667,      -8.02648
595.297,56.36833,      -8.02856
595.816,56.42000,      -8.03013
596.335,56.47167,      -8.03110
596.851,56.52333,      -8.03237
597.367,56.57500,      -8.03395
597.881,56.62667,      -8.03532
598.398,56.67833,      -8.03659
598.913,56.73000,      -8.03787
599.428,56.78167,      -8.03894
599.944,56.83333,      -8.04031
600.461,56.88500,      -8.04178
600.977,56.93667,      -8.04335
601.494,56.98833,      -8.04492
602.01,57.04000,      -8.04629
602.526,57.09167,      -8.04776
603.046,57.14333,      -8.04933
603.567,57.19500,      -8.05120
604.083,57.24667,      -8.05267
604.598,57.29833,      -8.05464
605.112,57.35000,      -8.05632
605.625,57.40167,      -8.05739
606.143,57.45333,      -8.05825
606.657,57.50500,      -8.05923
607.174,57.55667,      -8.06059
607.69,57.60833,      -8.06216
608.208,57.66000,      -8.06353
608.722,57.71167,      -8.06490
609.239,57.76333,      -8.06607
609.756,57.81500,      -8.06764
610.271,57.86667,      -8.06881
610.785,57.91833,      -8.07038
611.302,57.97000,      -8.07154
611.819,58.02167,      -8.07331
612.336,58.07333,      -8.07467
612.852,58.12500,      -8.07594
613.367,58.17667,      -8.07691
613.887,58.22833,      -8.07827
614.404,58.28000,      -8.07964
614.92,58.33167,      -8.08081
615.439,58.38333,      -8.08217
615.957,58.43500,      -8.08334
616.474,58.48667,      -8.08501
616.989,58.53833,      -8.08607
617.506,58.59000,      -8.08734
618.024,58.64167,      -8.08860
618.541,58.69333,      -8.09007
619.056,58.74500,      -8.09143
619.575,58.79667,      -8.09260
620.087,58.84833,      -8.09427
620.604,58.90000,      -8.09643
621.121,58.95167,      -8.09850
621.637,59.00333,      -8.09936
622.152,59.05500,      -8.10022
622.668,59.10667,      -8.10109
623.187,59.15833,      -8.10225
623.704,59.21000,      -8.10351
624.222,59.26167,      -8.10458
624.739,59.31333,      -8.10584
625.254,59.36500,      -8.10720
625.769,59.41667,      -8.10877
626.288,59.46833,      -8.11013
626.802,59.52000,      -8.11140
627.316,59.57167,      -8.11256
627.83,59.62333,      -8.11393
628.345,59.67500,      -8.11509
628.86,59.72667,      -8.11635
629.377,59.77833,      -8.11751
629.892,59.83000,      -8.11857
630.408,59.88167,      -8.11984
630.927,59.93333,      -8.12140
631.439,59.98500,      -8.12306
631.956,60.03667,      -8.12442
632.474,60.08833,      -8.12568
632.991,60.14000,      -8.12674
633.511,60.19167,      -8.12760
634.026,60.24333,      -8.12896
634.542,60.29500,      -8.13022
635.056,60.34667,      -8.13169
635.573,60.39833,      -8.13295
636.088,60.45000,      -8.13421
636.605,60.50167,      -8.13527
637.122,60.55333,      -8.13653
637.64,60.60500,      -8.13748
638.157,60.65667,      -8.13834
638.676,60.70833,      -8.13900
639.193,60.76000,      -8.13946
639.707,60.81167,      -8.14042
640.225,60.86333,      -8.14138
640.746,60.91500,      -8.14294
641.261,60.96667,      -8.14500
641.777,61.01833,      -8.14726
642.292,61.07000,      -8.14932
642.805,61.12167,      -8.15038
643.32,61.17333,      -8.15154
643.838,61.22500,      -8.15280
644.353,61.27667,      -8.15396
644.867,61.32833,      -8.15491
645.383,61.38000,      -8.15597
645.902,61.43167,      -8.15723
646.418,61.48333,      -8.15839
646.935,61.53500,      -8.15954
647.452,61.58667,      -8.16070
647.97,61.63833,      -8.16175
648.486,61.69000,      -8.16291
649.003,61.74167,      -8.16397
649.517,61.79333,      -8.16473
650.03,61.84500,      -8.16559
650.55,61.89667,      -8.16654
651.065,61.94833,      -8.16770
651.578,62.00000,      -8.16896
652.093,62.05167,      -8.17012
652.612,62.10333,      -8.17127
653.127,62.15500,      -8.17253
653.642,62.20667,      -8.17398
654.158,62.25833,      -8.17534
654.675,62.31000,      -8.17639
655.193,62.36167,      -8.17745
655.707,62.41333,      -8.17881
656.225,62.46500,      -8.17996
656.741,62.51667,      -8.18101
657.259,62.56833,      -8.18197
657.778,62.62000,      -8.18272
658.294,62.67167,      -8.18368
658.809,62.72333,      -8.18463
659.326,62.77500,      -8.18589
659.842,62.82667,      -8.18724
660.359,62.87833,      -8.18920
660.871,62.93000,      -8.19095
661.392,62.98167,      -8.19221
661.909,63.03333,      -8.19316
662.423,63.08500,      -8.19402
662.936,63.13667,      -8.19497
663.454,63.18833,      -8.19612
663.972,63.24000,      -8.19748
664.487,63.29167,      -8.19893
665.001,63.34333,      -8.20039
665.519,63.39500,      -8.20134
666.036,63.44667,      -8.20199
666.553,63.49833,      -8.20274
667.069,63.55000,      -8.20360
667.588,63.60167,      -8.20425
668.106,63.65333,      -8.20500
668.622,63.70500,      -8.20585
669.136,63.75667,      -8.20701
669.651,63.80833,      -8.20806
670.165,63.86000,      -8.20952
670.679,63.91167,      -8.21077
671.196,63.96333,      -8.21222
671.714,64.01500,      -8.21327
672.231,64.06667,      -8.21432
672.747,64.11833,      -8.21558
673.263,64.17000,      -8.21703
673.777,64.22167,      -8.21788
674.293,64.27333,      -8.21873
674.811,64.32500,      -8.21949
675.324,64.37667,      -8.22024
675.84,64.42833,      -8.22109
676.356,64.48000,      -8.22204
676.872,64.53167,      -8.22309
677.391,64.58333,      -8.22424
677.907,64.63500,      -8.22549
678.424,64.68667,      -8.22684
678.946,64.73833,      -8.22819
679.462,64.79000,      -8.22964
679.978,64.84167,      -8.23059
680.495,64.89333,      -8.23154
681.01,64.94500,      -8.23240
681.526,64.99667,      -8.23355
682.044,65.04833,      -8.23500
682.558,65.10000,      -8.23625
683.075,65.15167,      -8.23720
683.589,65.20333,      -8.23815
684.104,65.25500,      -8.23920
684.62,65.30667,      -8.24005
685.136,65.35833,      -8.24100
685.651,65.41000,      -8.24185
686.167,65.46167,      -8.24290
686.683,65.51333,      -8.24405
687.2,65.56500,      -8.24530
687.718,65.61667,      -8.24615
688.236,65.66833,      -8.24720
688.752,65.72000,      -8.24844
689.269,65.77167,      -8.24949
689.787,65.82333,      -8.25074
690.304,65.87500,      -8.25199
690.824,65.92667,      -8.25304
691.339,65.97833,      -8.25419
691.854,66.03000,      -8.25524
692.373,66.08167,      -8.25629
692.891,66.13333,      -8.25733
693.405,66.18500,      -8.25859
693.922,66.23667,      -8.25963
694.439,66.28833,      -8.26078
694.958,66.34000,      -8.26203
695.473,66.39167,      -8.26318
695.988,66.44333,      -8.26403
696.509,66.49500,      -8.26487
697.023,66.54667,      -8.26592
697.54,66.59833,      -8.26687
698.057,66.65000,      -8.26792
698.574,66.70167,      -8.26896
699.096,66.75333,      -8.27031
699.614,66.80500,      -8.27166
700.129,66.85667,      -8.27321
700.643,66.90833,      -8.27496
701.16,66.96000,      -8.27641
701.674,67.01167,      -8.27756
702.191,67.06333,      -8.27850
702.707,67.11500,      -8.27945
703.223,67.16667,      -8.28020
703.743,67.21833,      -8.28104
704.259,67.27000,      -8.28189
704.778,67.32167,      -8.28274
705.296,67.37333,      -8.28358
705.813,67.42500,      -8.28463
706.328,67.47667,      -8.28548
706.844,67.52833,      -8.28653
707.359,67.58000,      -8.28748
707.878,67.63167,      -8.28842
708.389,67.68333,      -8.28937
708.908,67.73500,      -8.29042
709.426,67.78667,      -8.29147
709.939,67.83833,      -8.29262
710.453,67.89000,      -8.29367
710.967,67.94167,      -8.29462
711.484,67.99333,      -8.29546
711.999,68.04500,      -8.29661
712.516,68.09667,      -8.29796
713.03,68.14833,      -8.29940
713.549,68.20000,      -8.30135
714.066,68.25167,      -8.30340
714.581,68.30333,      -8.30474
715.097,68.35500,      -8.30569
715.613,68.40667,      -8.30664
716.132,68.45833,      -8.30728
716.648,68.51000,      -8.30763
717.165,68.56167,      -8.30818
717.683,68.61333,      -8.30892
718.201,68.66500,      -8.30977
718.723,68.71667,      -8.31081
719.238,68.76833,      -8.31236
719.754,68.82000,      -8.31401
720.268,68.87167,      -8.31536
720.787,68.92333,      -8.31701
721.299,68.97500,      -8.31846
721.814,69.02667,      -8.31940
722.333,69.07833,      -8.32015
722.85,69.13000,      -8.32059
723.366,69.18167,      -8.32114
723.881,69.23333,      -8.32179
724.397,69.28500,      -8.32263
724.912,69.33667,      -8.32348
725.429,69.38833,      -8.32512
725.943,69.44000,      -8.32687
726.46,69.49167,      -8.32882
726.977,69.54333,      -8.33036
727.49,69.59500,      -8.33171
728.007,69.64667,      -8.33286
728.527,69.69833,      -8.33380
729.042,69.75000,      -8.33475
729.563,69.80167,      -8.33549
730.081,69.85333,      -8.33663
730.597,69.90500,      -8.33758
731.116,69.95667,      -8.33862
731.632,70.00833,      -8.33927
732.149,70.06000,      -8.33971
732.667,70.11167,      -8.34056
733.182,70.16333,      -8.34151
733.698,70.21500,      -8.34255
734.216,70.26667,      -8.34359
734.731,70.31833,      -8.34484
735.245,70.37000,      -8.34609
735.765,70.42167,      -8.34723
736.28,70.47333,      -8.34877
736.793,70.52500,      -8.35032
737.311,70.57667,      -8.35206
737.824,70.62833,      -8.35381
738.34,70.68000,      -8.35495
738.856,70.73167,      -8.35600
739.372,70.78333,      -8.35694
739.888,70.83500,      -8.35768
740.405,70.88667,      -8.35823
740.921,70.93833,      -8.35907
741.437,70.99000,      -8.36021
741.956,71.04167,      -8.36155
742.473,71.09333,      -8.36269
742.992,71.14500,      -8.36384
743.508,71.19667,      -8.36508
744.022,71.24833,      -8.36622
744.539,71.30000,      -8.36737
745.055,71.35167,      -8.36841
745.57,71.40333,      -8.36955
746.086,71.45500,      -8.37059
746.601,71.50667,      -8.37184
747.118,71.55833,      -8.37308
747.636,71.61000,      -8.37442
748.156,71.66167,      -8.37546
748.676,71.71333,      -8.37680
749.193,71.76500,      -8.37814
749.708,71.81667,      -8.37928
750.224,71.86833,      -8.38052
750.736,71.92000,      -8.38187
751.254,71.97167,      -8.38391
751.772,72.02333,      -8.38625
752.29,72.07500,      -8.38848
752.808,72.12667,      -8.38992
753.325,72.17833,      -8.39076
753.84,72.23000,      -8.39160
754.36,72.28167,      -8.39244
754.878,72.33333,      -8.39338
755.394,72.38500,      -8.39452
755.91,72.43667,      -8.39576
756.426,72.48833,      -8.39670
756.944,72.54000,      -8.39774
757.459,72.59167,      -8.39888
757.977,72.64333,      -8.39992
758.495,72.69500,      -8.40125
759.011,72.74667,      -8.40229
759.525,72.79833,      -8.40373
760.047,72.85000,      -8.40516
760.562,72.90167,      -8.40650
761.075,72.95333,      -8.40744
761.587,73.00500,      -8.40898
762.103,73.05667,      -8.41062
762.619,73.10833,      -8.41266
763.134,73.16000,      -8.41429
763.652,73.21167,      -8.41563
764.172,73.26333,      -8.41666
764.692,73.31500,      -8.41760
765.21,73.36667,      -8.41883
765.726,73.41833,      -8.41997
766.241,73.47000,      -8.42111
766.758,73.52167,      -8.42214
767.27,73.57333,      -8.42318
767.788,73.62500,      -8.42401
768.304,73.67667,      -8.42455
768.82,73.72833,      -8.42568
769.335,73.78000,      -8.42702
769.85,73.83167,      -8.42815
770.367,73.88333,      -8.42949
770.883,73.93500,      -8.43132
771.401,73.98667,      -8.43305
771.915,74.03833,      -8.43479
772.429,74.09000,      -8.43652
772.946,74.14167,      -8.43785
773.466,74.19333,      -8.43918
773.984,74.24500,      -8.44011
774.503,74.29667,      -8.44115
775.019,74.34833,      -8.44198
775.532,74.40000,      -8.44301
776.049,74.45167,      -8.44435
776.56,74.50333,      -8.44578
777.079,74.55500,      -8.44721
777.594,74.60667,      -8.44844
778.114,74.65833,      -8.44947
778.632,74.71000,      -8.45060
779.147,74.76167,      -8.45203
779.663,74.81333,      -8.45316
780.181,74.86500,      -8.45419
780.695,74.91667,      -8.45532
781.218,74.96833,      -8.45644
781.732,75.02000,      -8.45807
782.252,75.07167,      -8.46000
782.769,75.12333,      -8.46223
783.288,75.17500,      -8.46416
783.801,75.22667,      -8.46539
784.318,75.27833,      -8.46641
784.834,75.33000,      -8.46754
785.35,75.38167,      -8.46847
785.87,75.43333,      -8.46979
786.388,75.48500,      -8.47102
786.903,75.53667,      -8.47205
787.418,75.58833,      -8.47358
787.932,75.64000,      -8.47540
788.452,75.69167,      -8.47693
788.97,75.74333,      -8.47875
789.487,75.79500,      -8.48048
790.004,75.84667,      -8.48180
790.526,75.89833,      -8.48272
791.039,75.95000,      -8.48405
791.555,76.00167,      -8.48527
792.071,76.05333,      -8.48720
792.585,76.10500,      -8.48952
793.103,76.15667,      -8.49174
793.62,76.20833,      -8.49357
794.137,76.26000,      -8.49499
794.655,76.31167,      -8.49611
795.172,76.36333,      -8.49753
795.69,76.41500,      -8.49885
796.207,76.46667,      -8.50007
796.724,76.51833,      -8.50110
797.239,76.57000,      -8.50222
797.759,76.62167,      -8.50334
798.278,76.67333,      -8.50486
798.795,76.72500,      -8.50678
799.314,76.77667,      -8.50879
799.532,76.79833,      -8.50972