File: data-raw/TGA/G_TGA.csv
#EXPORTTYPE:                 ,DATA SINGLE
#FILE:                       ,G.ngb-st9
#FORMAT:                     ,NETZSCH5
#FTYPE:                      ,ANSI
#IDENTITY:                   ,Saras
#DECIMAL:                    ,POINT
#SEPARATOR:                  ,COMMA
#MTYPE:                      ,TG
#INSTRUMENT:                 ,NETZSCH TG 209F1 Libra
#PROJECT:                    ,IL
#DATE/TIME:                  ,16/03/2017 12:21:32 PM (UTC+11)
#CORR. FILE:                 ,
#TEMPCAL:                    ,TCALZERO.TCX
#LABORATORY:                 ,Capture Lab
#OPERATOR:                   ,NJN
#REMARK:                     ,Training run
#SAMPLE:                     ,G
#SAMPLE MASS /mg:            ,18.6977
#MATERIAL:                   ,KHCO3
#TYPE OF CRUCIBLE:           ,Al2O3
#SAMPLE CRUCIBLE MASS /mg:   ,310.9103
#REFERENCE CRUCIBLE MASS /mg:,
#M.RANGE /mg:                ,2000
#CORR. CODE:                 ,090
#RANGE:                      ,32°C/10.0(K/min)/800°C
#SEGMENT:                    ,S1/1
#SEG. 1:                     ,32°C/10.0(K/min)/800°C

##Temp./°C,Time/min,Mass loss/mg
 31.33900, 0.00000,-1.760177e-003
 31.34400, 0.05167,-4.614028e-003
 31.41200, 0.10333,-6.875784e-003
 31.74000, 0.15500,-5.808652e-003
 32.15100, 0.20667,-6.026518e-003
 32.52100, 0.25833,-8.619906e-003
 32.91000, 0.31000,-1.173653e-002
 33.34800, 0.36167,-1.501333e-002
 33.82800, 0.41333,-1.930922e-002
 34.34200, 0.46500,-2.109386e-002
 34.87900, 0.51667,-2.357196e-002
 35.44300, 0.56833,-2.585333e-002
 36.03300, 0.62000,-2.853241e-002
 36.64700, 0.67167,-3.224035e-002
 37.27600, 0.72333,-3.633287e-002
 37.91800, 0.77500,-4.085625e-002
 38.57000, 0.82667,-4.558993e-002
 39.22800, 0.87833,-4.983694e-002
 39.89100, 0.93000,-5.493133e-002
 40.55400, 0.98167,-5.964850e-002
 41.21600, 1.03333,-6.486199e-002
 41.87100, 1.08500,-7.013312e-002
 42.52200, 1.13667,-7.592692e-002
 43.16600, 1.18833,-8.149774e-002
 43.80000, 1.24000,-8.753659e-002
 44.42400, 1.29167,-9.383883e-002
 45.03600, 1.34333,-9.968562e-002
 45.64000, 1.39500,      -0.10666
 46.23000, 1.44667,      -0.11379
 46.81100, 1.49833,      -0.12162
 47.38000, 1.55000,      -0.12906
 47.94000, 1.60167,      -0.13688
 48.48700, 1.65333,      -0.14432
 49.03100, 1.70500,      -0.15288
 49.55900, 1.75667,      -0.16122
 50.08400, 1.80833,      -0.16890
 50.60200, 1.86000,      -0.17808
 51.11200, 1.91167,      -0.18669
 51.61800, 1.96333,      -0.19610
 52.11800, 2.01500,      -0.20494
 52.62000, 2.06667,      -0.21471
 53.11500, 2.11833,      -0.22317
 53.61100, 2.17000,      -0.23317
 54.10300, 2.22167,      -0.24286
 54.60000, 2.27333,      -0.25197
 55.09100, 2.32500,      -0.26230
 55.58200, 2.37667,      -0.27271
 56.08000, 2.42833,      -0.28337
 56.57600, 2.48000,      -0.29342
 57.06900, 2.53167,      -0.30454
 57.56900, 2.58333,      -0.31602
 58.07100, 2.63500,      -0.32658
 58.57600, 2.68667,      -0.33778
 59.08000, 2.73833,      -0.34823
 59.58800, 2.79000,      -0.35979
 60.09700, 2.84167,      -0.37106
 60.60700, 2.89333,      -0.38261
 61.11900, 2.94500,      -0.39439
 61.63200, 2.99667,      -0.40564
 62.14800, 3.04833,      -0.41698
 62.66400, 3.10000,      -0.42826
 63.18400, 3.15167,      -0.44020
 63.70900, 3.20333,      -0.45169
 64.22600, 3.25500,      -0.46430
 64.75400, 3.30667,      -0.47655
 65.27700, 3.35833,      -0.48950
 65.79900, 3.41000,      -0.50131
 66.31900, 3.46167,      -0.51442
 66.84200, 3.51333,      -0.52745
 67.36700, 3.56500,      -0.53948
 67.89000, 3.61667,      -0.55239
 68.41400, 3.66833,      -0.56410
 68.93700, 3.72000,      -0.57661
 69.46100, 3.77167,      -0.58854
 69.98000, 3.82333,      -0.60092
 70.50200, 3.87500,      -0.61274
 71.02200, 3.92667,      -0.62493
 71.54400, 3.97833,      -0.63854
 72.06500, 4.03000,      -0.65053
 72.58700, 4.08167,      -0.66355
 73.10500, 4.13333,      -0.67575
 73.62500, 4.18500,      -0.68815
 74.14600, 4.23667,      -0.69995
 74.66300, 4.28833,      -0.71225
 75.18100, 4.34000,      -0.72355
 75.69900, 4.39167,      -0.73525
 76.22000, 4.44333,      -0.74676
 76.74000, 4.49500,      -0.75817
 77.25700, 4.54667,      -0.77055
 77.77500, 4.59833,      -0.78225
 78.29200, 4.65000,      -0.79414
 78.80700, 4.70167,      -0.80454
 79.32100, 4.75333,      -0.81562
 79.84400, 4.80500,      -0.82645
 80.35900, 4.85667,      -0.83813
 80.87200, 4.90833,      -0.84922
 81.39200, 4.96000,      -0.85923
 81.91200, 5.01167,      -0.87004
 82.42700, 5.06333,      -0.87963
 82.94800, 5.11500,      -0.88974
 83.46300, 5.16667,      -0.89943
 83.98100, 5.21833,      -0.91022
 84.50100, 5.27000,      -0.92024
 85.02000, 5.32167,      -0.93004
 85.53300, 5.37333,      -0.93942
 86.05100, 5.42500,      -0.94812
 86.56600, 5.47667,      -0.95709
 87.08700, 5.52833,      -0.96590
 87.60500, 5.58000,      -0.97491
 88.12000, 5.63167,      -0.98420
 88.63800, 5.68333,      -0.99348
 89.15900, 5.73500,      -1.00149
 89.67300, 5.78667,      -1.01007
 90.19300, 5.83833,      -1.01889
 90.71200, 5.89000,      -1.02669
 91.22900, 5.94167,      -1.03447
 91.75100, 5.99333,      -1.04186
 92.26900, 6.04500,      -1.04945
 92.78500, 6.09667,      -1.05653
 93.30600, 6.14833,      -1.06394
 93.82200, 6.20000,      -1.07132
 94.33900, 6.25167,      -1.07831
 94.85800, 6.30333,      -1.08580
 95.37500, 6.35500,      -1.09208
 95.89200, 6.40667,      -1.09878
 96.40800, 6.45833,      -1.10497
 96.92400, 6.51000,      -1.11194
 97.44300, 6.56167,      -1.11845
 97.95900, 6.61333,      -1.12484
 98.47400, 6.66500,      -1.13053
 98.99000, 6.71667,      -1.13622
 99.50800, 6.76833,      -1.14151
100.022, 6.82000,      -1.14650
100.536, 6.87167,      -1.15231
101.055, 6.92333,      -1.15784
101.57, 6.97500,      -1.16344
102.09, 7.02667,      -1.16906
102.603, 7.07833,      -1.17497
103.12, 7.13000,      -1.17979
103.638, 7.18167,      -1.18440
104.149, 7.23333,      -1.18899
104.671, 7.28500,      -1.19331
105.186, 7.33667,      -1.19791
105.701, 7.38833,      -1.20251
106.219, 7.44000,      -1.20692
106.733, 7.49167,      -1.21092
107.25, 7.54333,      -1.21531
107.765, 7.59500,      -1.21930
108.281, 7.64667,      -1.22410
108.796, 7.69833,      -1.22849
109.31, 7.75000,      -1.23198
109.824, 7.80167,      -1.23577
110.339, 7.85333,      -1.23946
110.856, 7.90500,      -1.24357
111.372, 7.95667,      -1.24705
111.884, 8.00833,      -1.25073
112.404, 8.06000,      -1.25373
112.922, 8.11167,      -1.25623
113.437, 8.16333,      -1.25921
113.952, 8.21500,      -1.26249
114.469, 8.26667,      -1.26617
114.984, 8.31833,      -1.26935
115.5, 8.37000,      -1.27224
116.017, 8.42167,      -1.27512
116.534, 8.47333,      -1.27810
117.051, 8.52500,      -1.28117
117.565, 8.57667,      -1.28474
118.079, 8.62833,      -1.28802
118.595, 8.68000,      -1.29059
119.112, 8.73167,      -1.29298
119.628, 8.78333,      -1.29465
120.149, 8.83500,      -1.29624
120.664, 8.88667,      -1.29770
121.182, 8.93833,      -1.30017
121.698, 8.99000,      -1.30284
122.212, 9.04167,      -1.30629
122.729, 9.09333,      -1.30976
123.241, 9.14500,      -1.31222
123.756, 9.19667,      -1.31389
124.276, 9.24833,      -1.31566
124.793, 9.30000,      -1.31733
125.309, 9.35167,      -1.31909
125.827, 9.40333,      -1.32185
126.341, 9.45500,      -1.32461
126.858, 9.50667,      -1.32747
127.376, 9.55833,      -1.33044
127.892, 9.61000,      -1.33269
128.41, 9.66167,      -1.33515
128.926, 9.71333,      -1.33751
129.442, 9.76500,      -1.33946
129.96, 9.81667,      -1.34092
130.477, 9.86833,      -1.34277
130.994, 9.92000,      -1.34572
131.514, 9.97167,      -1.34918
132.026,10.02333,      -1.35202
132.544,10.07500,      -1.35398
133.06,10.12667,      -1.35622
133.575,10.17833,      -1.35857
134.09,10.23000,      -1.36112
134.611,10.28167,      -1.36388
135.125,10.33333,      -1.36702
135.642,10.38500,      -1.37026
136.157,10.43667,      -1.37361
136.676,10.48833,      -1.37626
137.193,10.54000,      -1.37861
137.712,10.59167,      -1.38146
138.232,10.64333,      -1.38401
138.749,10.69500,      -1.38655
139.266,10.74667,      -1.38939
139.783,10.79833,      -1.39342
140.296,10.85000,      -1.39726
140.812,10.90167,      -1.40110
141.328,10.95333,      -1.40434
141.846,11.00500,      -1.40758
142.365,11.05667,      -1.41072
142.876,11.10833,      -1.41365
143.395,11.16000,      -1.41730
143.915,11.21167,      -1.42075
144.429,11.26333,      -1.42418
144.944,11.31500,      -1.42731
145.46,11.36667,      -1.43065
145.976,11.41833,      -1.43448
146.499,11.47000,      -1.43823
147.013,11.52167,      -1.44236
147.531,11.57333,      -1.44629
148.047,11.62500,      -1.45053
148.565,11.67667,      -1.45466
149.082,11.72833,      -1.45910
149.6,11.78000,      -1.46323
150.115,11.83167,      -1.46796
150.634,11.88333,      -1.47219
151.15,11.93500,      -1.47613
151.667,11.98667,      -1.48026
152.186,12.03833,      -1.48369
152.709,12.09000,      -1.48723
153.227,12.14167,      -1.49036
153.741,12.19333,      -1.49548
154.262,12.24500,      -1.50022
154.779,12.29667,      -1.50484
155.297,12.34833,      -1.50977
155.812,12.40000,      -1.51420
156.329,12.45167,      -1.51882
156.843,12.50333,      -1.52305
157.357,12.55500,      -1.52707
157.875,12.60667,      -1.53100
158.388,12.65833,      -1.53513
158.905,12.71000,      -1.53976
159.422,12.76167,      -1.54419
159.939,12.81333,      -1.54872
160.455,12.86500,      -1.55364
160.971,12.91667,      -1.55927
161.486,12.96833,      -1.56509
162.003,13.02000,      -1.57082
162.519,13.07167,      -1.57495
163.034,13.12333,      -1.57948
163.55,13.17500,      -1.58370
164.067,13.22667,      -1.58813
164.585,13.27833,      -1.59326
165.1,13.33000,      -1.59838
165.618,13.38167,      -1.60331
166.134,13.43333,      -1.60834
166.65,13.48500,      -1.61446
167.165,13.53667,      -1.61989
167.684,13.58833,      -1.62612
168.198,13.64000,      -1.63214
168.713,13.69167,      -1.63816
169.23,13.74333,      -1.64409
169.747,13.79500,      -1.64952
170.262,13.84667,      -1.65565
170.781,13.89833,      -1.66118
171.298,13.95000,      -1.66721
171.815,14.00167,      -1.67293
172.333,14.05333,      -1.67896
172.849,14.10500,      -1.68508
173.367,14.15667,      -1.69181
173.88,14.20833,      -1.69883
174.399,14.26000,      -1.70576
174.918,14.31167,      -1.71309
175.433,14.36333,      -1.71941
175.952,14.41500,      -1.72565
176.468,14.46667,      -1.73207
176.987,14.51833,      -1.73950
177.505,14.57000,      -1.74713
178.022,14.62167,      -1.75476
178.536,14.67333,      -1.76258
179.054,14.72500,      -1.77020
179.57,14.77667,      -1.77884
180.086,14.82833,      -1.78646
180.603,14.88000,      -1.79400
181.119,14.93167,      -1.80112
181.635,14.98333,      -1.80925
182.151,15.03500,      -1.81718
182.669,15.08667,      -1.82611
183.188,15.13833,      -1.83465
183.705,15.19000,      -1.84208
184.223,15.24167,      -1.85021
184.741,15.29333,      -1.85814
185.257,15.34500,      -1.86777
185.775,15.39667,      -1.87750
186.289,15.44833,      -1.88773
186.807,15.50000,      -1.89806
187.322,15.55167,      -1.90739
187.835,15.60333,      -1.91723
188.352,15.65500,      -1.92646
188.87,15.70667,      -1.93590
189.383,15.75833,      -1.94573
189.9,15.81000,      -1.95616
190.415,15.86167,      -1.96590
190.934,15.91333,      -1.97644
191.45,15.96500,      -1.98688
191.965,16.01667,      -1.99701
192.481,16.06833,      -2.00765
192.999,16.12000,      -2.01819
193.515,16.17167,      -2.02963
194.034,16.22333,      -2.04067
194.549,16.27500,      -2.05250
195.066,16.32667,      -2.06334
195.583,16.37833,      -2.07509
196.1,16.43000,      -2.08723
196.619,16.48167,      -2.09837
197.135,16.53333,      -2.11071
197.654,16.58500,      -2.12215
198.173,16.63667,      -2.13500
198.689,16.68833,      -2.14694
199.207,16.74000,      -2.15969
199.725,16.79167,      -2.17193
200.242,16.84333,      -2.18457
200.76,16.89500,      -2.19822
201.276,16.94667,      -2.21066
201.792,16.99833,      -2.22391
202.311,17.05000,      -2.23686
202.825,17.10167,      -2.26450
203.343,17.15333,      -2.27345
203.858,17.20500,      -2.28499
204.37,17.25667,      -2.29644
204.888,17.30833,      -2.32239
205.406,17.36000,      -2.33234
205.922,17.41167,      -2.34418
206.438,17.46333,      -2.35733
206.951,17.51500,      -2.38058
207.472,17.56667,      -2.39203
207.988,17.61833,      -2.40418
208.504,17.67000,      -2.43023
209.026,17.72167,      -2.44038
209.54,17.77333,      -2.45232
210.057,17.82500,      -2.47507
210.573,17.87667,      -2.48621
211.089,17.92833,      -2.51126
211.612,17.98000,      -2.52762
212.129,18.03167,      -2.54517
212.647,18.08333,      -2.56032
213.166,18.13500,      -2.57196
213.678,18.18667,      -2.59591
214.195,18.23833,      -2.61416
214.711,18.29000,      -2.63201
215.225,18.34167,      -2.64905
215.745,18.39333,      -2.66731
216.26,18.44500,      -2.68465
216.778,18.49667,      -2.70291
217.295,18.54833,      -2.72036
217.81,18.60000,      -2.73960
218.324,18.65167,      -2.75765
218.842,18.70333,      -2.77690
219.355,18.75500,      -2.79565
219.873,18.80667,      -2.81341
220.39,18.85833,      -2.83276
220.905,18.91000,      -2.85031
221.424,18.96167,      -2.86966
221.938,19.01333,      -2.88831
222.455,19.06500,      -2.90776
222.973,19.11667,      -2.92631
223.489,19.16833,      -2.94526
224.008,19.22000,      -2.96521
224.526,19.27167,      -2.98487
225.039,19.32333,      -3.00511
225.558,19.37500,      -3.02426
226.075,19.42667,      -3.04382
226.594,19.47833,      -3.06197
227.108,19.53000,      -3.08312
227.626,19.58167,      -3.10377
228.139,19.63333,      -3.12602
228.655,19.68500,      -3.14677
229.171,19.73667,      -3.16652
229.687,19.78833,      -3.18867
230.204,19.84000,      -3.21013
230.72,19.89167,      -3.23208
231.234,19.94333,      -3.25323
231.753,19.99500,      -3.27618
232.268,20.04667,      -3.29783
232.788,20.09833,      -3.32069
233.306,20.15000,      -3.34454
233.824,20.20167,      -3.36709
234.342,20.25333,      -3.39094
234.857,20.30500,      -3.41369
235.371,20.35667,      -3.43785
235.89,20.40833,      -3.46140
236.405,20.46000,      -3.48495
236.921,20.51167,      -3.50830
237.437,20.56333,      -3.53375
237.954,20.61500,      -3.55871
238.47,20.66667,      -3.58256
238.982,20.71833,      -3.60721
239.499,20.77000,      -3.63106
240.016,20.82167,      -3.65551
240.531,20.87333,      -3.67937
241.047,20.92500,      -3.70412
241.563,20.97667,      -3.72897
242.079,21.02833,      -3.75492
242.598,21.08000,      -3.78018
243.111,21.13167,      -3.80383
243.629,21.18333,      -3.83038
244.143,21.23500,      -3.85503
244.661,21.28667,      -3.87999
245.176,21.33833,      -3.90254
245.694,21.39000,      -3.92719
246.21,21.44167,      -3.95004
246.728,21.49333,      -3.97489
247.245,21.54500,      -3.99925
247.763,21.59667,      -4.02180
248.277,21.64833,      -4.04665
248.794,21.70000,      -4.06930
249.307,21.75167,      -4.09325
249.823,21.80333,      -4.11510
250.339,21.85500,      -4.14146
250.857,21.90667,      -4.16461
251.373,21.95833,      -4.18946
251.887,22.01000,      -4.21431
252.405,22.06167,      -4.23777
252.922,22.11333,      -4.26092
253.437,22.16500,      -4.28297
253.955,22.21667,      -4.30642
254.472,22.26833,      -4.32907
254.987,22.32000,      -4.35272
255.504,22.37167,      -4.37518
256.021,22.42333,      -4.39973
256.536,22.47500,      -4.42448
257.054,22.52667,      -4.44663
257.572,22.57833,      -4.46958
258.09,22.63000,      -4.49204
258.605,22.68167,      -4.51539
259.124,22.73333,      -4.53784
259.64,22.78500,      -4.56129
260.157,22.83667,      -4.58324
260.672,22.88833,      -4.60709
261.192,22.94000,      -4.63114
261.711,22.99167,      -4.65389
262.225,23.04333,      -4.67794
262.744,23.09500,      -4.70039
263.261,23.14667,      -4.72444
263.777,23.19833,      -4.74729
264.292,23.25000,      -4.77075
264.81,23.30167,      -4.79440
265.322,23.35333,      -4.82015
265.837,23.40500,      -4.84430
266.353,23.45667,      -4.86705
266.869,23.50833,      -4.89290
267.385,23.56000,      -4.91635
267.905,23.61167,      -4.94150
268.421,23.66333,      -4.96635
268.936,23.71500,      -4.99120
269.456,23.76667,      -5.01515
269.973,23.81833,      -5.04030
270.49,23.87000,      -5.06605
271.007,23.92167,      -5.09119
271.525,23.97333,      -5.11874
272.042,24.02500,      -5.14369
272.563,24.07667,      -5.16844
273.081,24.12833,      -5.19359
273.599,24.18000,      -5.22034
274.113,24.23167,      -5.24629
274.63,24.28333,      -5.27444
275.151,24.33500,      -5.30238
275.666,24.38667,      -5.32933
276.182,24.43833,      -5.35828
276.698,24.49000,      -5.38653
277.212,24.54167,      -5.41658
277.726,24.59333,      -5.44352
278.242,24.64500,      -5.47227
278.759,24.69667,      -5.50002
279.273,24.74833,      -5.53047
279.791,24.80000,      -5.56121
280.307,24.85167,      -5.59056
280.823,24.90333,      -5.62161
281.341,24.95500,      -5.65076
281.854,25.00667,      -5.68240
282.372,25.05833,      -5.71155
282.891,25.11000,      -5.74439
283.406,25.16167,      -5.77444
283.924,25.21333,      -5.80749
284.44,25.26500,      -5.84033
284.957,25.31667,      -5.87208
285.473,25.36833,      -5.90562
285.989,25.42000,      -5.93817
286.503,25.47167,      -5.97251
287.02,25.52333,      -6.00596
287.538,25.57500,      -6.04100
288.055,25.62667,      -6.07425
288.572,25.67833,      -6.11039
289.088,25.73000,      -6.14774
289.617,25.78167,      -6.18228
290.137,25.83333,      -6.21952
290.652,25.88500,      -6.25497
291.169,25.93667,      -6.29201
291.683,25.98833,      -6.32706
292.196,26.04000,      -6.36450
292.71,26.09167,      -6.39954
293.226,26.14333,      -6.43748
293.742,26.19500,      -6.47523
294.259,26.24667,      -6.51027
294.776,26.29833,      -6.54871
295.29,26.35000,      -6.58505
295.807,26.40167,      -6.62340
296.323,26.45333,      -6.65964
296.835,26.50500,      -6.69908
297.349,26.55667,      -6.73732
297.867,26.60833,      -6.77296
298.384,26.66000,      -6.81110
298.898,26.71167,      -6.84664
299.413,26.76333,      -6.88358
299.929,26.81500,      -6.91842
300.447,26.86667,      -6.95466
300.959,26.91833,      -6.98850
301.476,26.97000,      -7.02345
301.992,27.02167,      -7.05499
302.505,27.07333,      -7.08973
303.021,27.12500,      -7.12457
303.536,27.17667,      -7.15621
304.052,27.22833,      -7.18965
304.569,27.28000,      -7.22019
305.082,27.33167,      -7.25233
305.598,27.38333,      -7.28147
306.114,27.43500,      -7.31231
306.629,27.48667,      -7.34275
307.147,27.53833,      -7.36989
307.666,27.59000,      -7.39913
308.184,27.64167,      -7.42577
308.702,27.69333,      -7.45371
309.219,27.74500,      -7.47935
309.735,27.79667,      -7.50699
310.252,27.84833,      -7.53193
310.768,27.90000,      -7.55777
311.282,27.95167,      -7.58371
311.8,28.00333,      -7.60715
312.315,28.05500,      -7.63229
312.828,28.10667,      -7.65603
313.346,28.15833,      -7.67997
313.863,28.21000,      -7.70111
314.379,28.26167,      -7.72375
314.898,28.31333,      -7.74549
315.411,28.36500,      -7.76743
315.927,28.41667,      -7.78987
316.448,28.46833,      -7.80961
316.963,28.52000,      -7.83045
317.48,28.57167,      -7.84999
317.998,28.62333,      -7.86993
318.515,28.67500,      -7.88937
319.029,28.72667,      -7.91081
319.547,28.77833,      -7.92785
320.062,28.83000,      -7.94659
320.583,28.88167,      -7.96573
321.098,28.93333,      -7.98317
321.614,28.98500,      -8.00161
322.13,29.03667,      -8.02005
322.646,29.08833,      -8.03729
323.161,29.14000,      -8.05403
323.681,29.19167,      -8.07227
324.199,29.24333,      -8.08211
324.716,29.29500,      -8.09555
325.23,29.34667,      -8.12199
325.749,29.39833,      -8.13063
326.265,29.45000,      -8.14186
326.784,29.50167,      -8.16980
327.297,29.55333,      -8.18485
327.81,29.60500,      -8.19489
328.328,29.65667,      -8.20592
328.847,29.70833,      -8.21786
329.365,29.76000,      -8.24180
329.886,29.81167,      -8.25204
330.402,29.86333,      -8.26408
330.919,29.91500,      -8.28402
331.436,29.96667,      -8.30046
331.949,30.01833,      -8.31240
332.462,30.07000,      -8.32424
332.975,30.12167,      -8.34558
333.496,30.17333,      -8.35901
334.009,30.22500,      -8.36995
334.523,30.27667,      -8.38299
335.042,30.32833,      -8.40583
335.56,30.38000,      -8.41487
336.078,30.43167,      -8.42441
336.596,30.48333,      -8.43624
337.115,30.53500,      -8.45708
337.631,30.58667,      -8.47082
338.145,30.63833,      -8.48106
338.66,30.69000,      -8.49260
339.176,30.74167,      -8.50534
339.691,30.79333,      -8.51738
340.208,30.84500,      -8.53051
340.727,30.89667,      -8.54265
341.242,30.94833,      -8.55569
341.761,31.00000,      -8.56762
342.28,31.05167,      -8.58026
342.797,31.10333,      -8.59350
343.313,31.15500,      -8.61644
343.826,31.20667,      -8.62608
344.343,31.25833,      -8.63591
344.856,31.31000,      -8.64735
345.375,31.36167,      -8.65909
345.889,31.41333,      -8.67133
346.406,31.46500,      -8.68306
346.922,31.51667,      -8.69550
347.444,31.56833,      -8.70693
347.96,31.62000,      -8.71897
348.476,31.67167,      -8.73221
348.995,31.72333,      -8.74444
349.51,31.77500,      -8.75658
350.026,31.82667,      -8.76872
350.543,31.87833,      -8.78105
351.058,31.93000,      -8.79289
351.576,31.98167,      -8.80503
352.091,32.03333,      -8.81596
352.607,32.08500,      -8.82790
353.124,32.13667,      -8.84013
353.641,32.18833,      -8.85257
354.156,32.24000,      -8.86511
354.672,32.29167,      -8.87644
355.187,32.34333,      -8.88938
355.705,32.39500,      -8.90101
356.217,32.44667,      -8.91425
356.733,32.49833,      -8.92618
357.251,32.55000,      -8.93832
357.765,32.60167,      -8.95055
358.278,32.65333,      -8.96159
358.795,32.70500,      -8.97372
359.311,32.75667,      -8.98516
359.829,32.80833,      -8.99709
360.344,32.86000,      -9.00782
360.861,32.91167,      -9.01875
361.379,32.96333,      -9.02879
361.896,33.01500,      -9.03982
362.413,33.06667,      -9.05165
362.929,33.11833,      -9.06319
363.447,33.17000,      -9.07492
363.964,33.22167,      -9.08586
364.483,33.27333,      -9.09619
365.001,33.32500,      -9.10612
365.519,33.37667,      -9.11765
366.031,33.42833,      -9.12929
366.549,33.48000,      -9.14162
367.065,33.53167,      -9.15355
367.581,33.58333,      -9.16409
368.098,33.63500,      -9.17472
368.612,33.68667,      -9.18445
369.134,33.73833,      -9.19438
369.649,33.79000,      -9.20451
370.163,33.84167,      -9.21724
370.678,33.89333,      -9.22858
371.196,33.94500,      -9.24001
371.712,33.99667,      -9.25124
372.225,34.04833,      -9.26117
372.74,34.10000,      -9.27180
373.257,34.15167,      -9.28153
373.772,34.20333,      -9.29166
374.29,34.25500,      -9.30159
374.803,34.30667,      -9.31232
375.323,34.35833,      -9.32255
375.841,34.41000,      -9.33248
376.358,34.46167,      -9.34281
376.879,34.51333,      -9.35283
377.395,34.56500,      -9.36276
377.913,34.61667,      -9.37299
378.428,34.66833,      -9.38412
378.943,34.72000,      -9.39475
379.458,34.77167,      -9.40618
379.971,34.82333,      -9.41621
380.491,34.87500,      -9.42624
381.002,34.92667,      -9.43697
381.521,34.97833,      -9.44750
382.034,35.03000,      -9.45833
382.552,35.08167,      -9.46785
383.068,35.13333,      -9.47798
383.588,35.18500,      -9.48680
384.104,35.23667,      -9.49713
384.617,35.28833,      -9.50716
385.132,35.34000,      -9.51699
385.651,35.39167,      -9.52801
386.167,35.44333,      -9.53744
386.683,35.49500,      -9.54826
387.2,35.54667,      -9.55739
387.718,35.59833,      -9.56611
388.238,35.65000,      -9.57494
388.754,35.70167,      -9.58536
389.266,35.75333,      -9.59539
389.785,35.80500,      -9.60531
390.302,35.85667,      -9.61524
390.817,35.90833,      -9.62376
391.334,35.96000,      -9.63319
391.85,36.01167,      -9.64321
392.367,36.06333,      -9.65314
392.882,36.11500,      -9.66206
393.395,36.16667,      -9.67268
393.911,36.21833,      -9.68261
394.425,36.27000,      -9.69273
394.946,36.32167,      -9.70175
395.462,36.37333,      -9.71057
395.977,36.42500,      -9.72040
396.492,36.47667,      -9.72982
397.01,36.52833,      -9.73984
397.526,36.58000,      -9.74906
398.046,36.63167,      -9.75928
398.563,36.68333,      -9.76870
399.075,36.73500,      -9.77883
399.593,36.78667,      -9.78845
400.111,36.83833,      -9.79636
400.629,36.89000,      -9.80519
401.143,36.94167,      -9.81361
401.658,36.99333,      -9.82363
402.174,37.04500,      -9.83355
402.689,37.09667,      -9.84387
403.206,37.14833,      -9.85279
403.716,37.20000,      -9.86241
404.232,37.25167,      -9.87313
404.748,37.30333,      -9.88275
405.258,37.35500,      -9.89237
405.775,37.40667,      -9.90159
406.291,37.45833,      -9.91131
406.805,37.51000,      -9.92083
407.321,37.56167,      -9.93125
407.839,37.61333,      -9.94106
408.352,37.66500,      -9.95068
408.87,37.71667,      -9.96000
409.39,37.76833,      -9.96941
409.909,37.82000,      -9.97913
410.427,37.87167,      -9.98815
410.943,37.92333,      -9.99847
411.462,37.97500,     -10.00698
411.977,38.02667,     -10.01650
412.49,38.07833,     -10.02732
413.004,38.13000,     -10.03744
413.523,38.18167,     -10.04736
414.04,38.23333,     -10.05617
414.559,38.28500,     -10.06659
415.074,38.33667,     -10.07661
415.592,38.38833,     -10.08722
416.108,38.44000,     -10.09644
416.625,38.49167,     -10.10616
417.142,38.54333,     -10.11547
417.66,38.59500,     -10.12499
418.176,38.64667,     -10.13431
418.694,38.69833,     -10.14382
419.211,38.75000,     -10.15394
419.725,38.80167,     -10.16355
420.24,38.85333,     -10.17327
420.757,38.90500,     -10.18349
421.272,38.95667,     -10.19440
421.785,39.00833,     -10.20422
422.302,39.06000,     -10.21443
422.818,39.11167,     -10.22435
423.333,39.16333,     -10.23376
423.852,39.21500,     -10.24307
424.372,39.26667,     -10.25179
424.888,39.31833,     -10.26250
425.404,39.37000,     -10.27222
425.921,39.42167,     -10.28273
426.437,39.47333,     -10.29315
426.95,39.52500,     -10.30286
427.465,39.57667,     -10.31288
427.982,39.62833,     -10.32139
428.499,39.68000,     -10.33110
429.012,39.73167,     -10.33962
429.53,39.78333,     -10.34943
430.045,39.83500,     -10.35864
430.558,39.88667,     -10.36836
431.077,39.93833,     -10.37847
431.591,39.99000,     -10.38828
432.11,40.04167,     -10.39870
432.624,40.09333,     -10.40841
433.142,40.14500,     -10.41792
433.659,40.19667,     -10.42723
434.173,40.24833,     -10.43695
434.691,40.30000,     -10.44626
435.205,40.35167,     -10.45617
435.721,40.40333,     -10.46558
436.241,40.45500,     -10.47429
436.758,40.50667,     -10.48380
437.274,40.55833,     -10.49272
437.792,40.61000,     -10.50223
438.31,40.66167,     -10.51114
438.824,40.71333,     -10.52085
439.34,40.76500,     -10.52946
439.859,40.81667,     -10.53867
440.376,40.86833,     -10.54788
440.891,40.92000,     -10.55709
441.408,40.97167,     -10.56740
441.923,41.02333,     -10.57612
442.437,41.07500,     -10.58533
442.952,41.12667,     -10.59314
443.47,41.17833,     -10.60175
443.988,41.23000,     -10.61056
444.504,41.28167,     -10.61966
445.022,41.33333,     -10.62857
445.538,41.38500,     -10.63728
446.054,41.43667,     -10.64639
446.574,41.48833,     -10.65480
447.093,41.54000,     -10.66261
447.611,41.59167,     -10.67002
448.126,41.64333,     -10.67833
448.643,41.69500,     -10.68684
449.158,41.74667,     -10.69575
449.672,41.79833,     -10.70426
450.187,41.85000,     -10.71247
450.704,41.90167,     -10.72177
451.219,41.95333,     -10.73099
451.732,42.00500,     -10.73930
452.247,42.05667,     -10.74710
452.761,42.10833,     -10.75541
453.283,42.16000,     -10.76251
453.801,42.21167,     -10.77142
454.318,42.26333,     -10.78063
454.833,42.31500,     -10.78864
455.347,42.36667,     -10.79695
455.86,42.41833,     -10.80406
456.374,42.47000,     -10.81186
456.893,42.52167,     -10.81947
457.407,42.57333,     -10.82778
457.922,42.62500,     -10.83528
458.437,42.67667,     -10.84249
458.955,42.72833,     -10.84989
459.474,42.78000,     -10.85790
459.988,42.83167,     -10.86681
460.505,42.88333,     -10.87551
461.022,42.93500,     -10.88372
461.537,42.98667,     -10.89103
462.052,43.03833,     -10.89793
462.568,43.09000,     -10.90394
463.084,43.14167,     -10.91034
463.604,43.19333,     -10.91714
464.12,43.24500,     -10.92515
464.637,43.29667,     -10.93355
465.155,43.34833,     -10.94176
465.671,43.40000,     -10.94956
466.189,43.45167,     -10.95657
466.705,43.50333,     -10.96357
467.224,43.55500,     -10.96938
467.74,43.60667,     -10.97618
468.256,43.65833,     -10.98379
468.771,43.71000,     -10.99099
469.286,43.76167,     -10.99800
469.801,43.81333,     -11.00480
470.317,43.86500,     -11.01180
470.834,43.91667,     -11.01841
471.348,43.96833,     -11.02661
471.865,44.02000,     -11.03342
472.38,44.07167,     -11.04102
472.901,44.12333,     -11.04782
473.417,44.17500,     -11.05362
473.937,44.22667,     -11.05952
474.451,44.27833,     -11.06623
474.967,44.33000,     -11.07363
475.481,44.38167,     -11.07993
475.999,44.43333,     -11.08584
476.516,44.48500,     -11.09134
477.032,44.53667,     -11.09774
477.549,44.58833,     -11.10384
478.065,44.64000,     -11.11044
478.581,44.69167,     -11.11695
479.097,44.74333,     -11.12315
479.608,44.79500,     -11.12955
480.121,44.84667,     -11.13536
480.633,44.89833,     -11.14196
481.148,44.95000,     -11.14786
481.662,45.00167,     -11.15416
482.18,45.05333,     -11.16016
482.699,45.10500,     -11.16486
483.218,45.15667,     -11.16925
483.736,45.20833,     -11.17326
484.255,45.26000,     -11.17885
484.77,45.31167,     -11.18416
485.288,45.36333,     -11.18936
485.804,45.41500,     -11.19446
486.319,45.46667,     -11.20016
486.836,45.51833,     -11.20636
487.35,45.57000,     -11.21206
487.863,45.62167,     -11.21806
488.377,45.67333,     -11.22346
488.896,45.72500,     -11.22916
489.408,45.77667,     -11.23416
489.925,45.82833,     -11.23856
490.445,45.88000,     -11.24306
490.963,45.93167,     -11.24755
491.478,45.98333,     -11.25145
491.99,46.03500,     -11.25506
492.509,46.08667,     -11.26025
493.027,46.13833,     -11.26555
493.542,46.19000,     -11.27075
494.054,46.24167,     -11.27495
494.571,46.29333,     -11.28014
495.087,46.34500,     -11.28394
495.601,46.39667,     -11.28884
496.118,46.44833,     -11.29324
496.638,46.50000,     -11.29663
497.153,46.55167,     -11.30033
497.669,46.60333,     -11.30393
498.183,46.65500,     -11.30813
498.699,46.70667,     -11.31183
499.211,46.75833,     -11.31583
499.73,46.81000,     -11.31982
500.243,46.86167,     -11.32412
500.761,46.91333,     -11.32842
501.276,46.96500,     -11.33181
501.791,47.01667,     -11.33561
502.311,47.06833,     -11.33900
502.828,47.12000,     -11.34270
503.344,47.17167,     -11.34649
503.86,47.22333,     -11.35049
504.377,47.27500,     -11.35409
504.891,47.32667,     -11.35799
505.408,47.37833,     -11.36198
505.922,47.43000,     -11.36598
506.438,47.48167,     -11.36947
506.953,47.53333,     -11.37317
507.468,47.58500,     -11.37727
507.986,47.63667,     -11.38086
508.502,47.68833,     -11.38426
509.019,47.74000,     -11.38695
509.536,47.79167,     -11.38904
510.054,47.84333,     -11.39114
510.575,47.89500,     -11.39343
511.092,47.94667,     -11.39622
511.609,47.99833,     -11.39922
512.126,48.05000,     -11.40232
512.642,48.10167,     -11.40571
513.157,48.15333,     -11.40911
513.67,48.20500,     -11.41181
514.187,48.25667,     -11.41490
514.703,48.30833,     -11.41799
515.218,48.36000,     -11.42109
515.737,48.41167,     -11.42388
516.253,48.46333,     -11.42627
516.768,48.51500,     -11.42877
517.283,48.56667,     -11.43127
517.797,48.61833,     -11.43416
518.31,48.67000,     -11.43636
518.827,48.72167,     -11.43865
519.344,48.77333,     -11.44064
519.86,48.82500,     -11.44264
520.38,48.87667,     -11.44492
520.898,48.92833,     -11.44652
521.416,48.98000,     -11.44811
521.929,49.03167,     -11.44921
522.447,49.08333,     -11.45140
522.964,49.13500,     -11.45429
523.478,49.18667,     -11.45749
523.997,49.23833,     -11.46068
524.511,49.29000,     -11.46357
525.027,49.34167,     -11.46667
525.539,49.39333,     -11.46976
526.055,49.44500,     -11.47275
526.571,49.49667,     -11.47505
527.089,49.54833,     -11.47724
527.605,49.60000,     -11.47953
528.121,49.65167,     -11.48132
528.638,49.70333,     -11.48321
529.153,49.75500,     -11.48450
529.673,49.80667,     -11.48619
530.189,49.85833,     -11.48759
530.703,49.91000,     -11.48928
531.222,49.96167,     -11.49127
531.736,50.01333,     -11.49366
532.253,50.06500,     -11.49615
532.771,50.11667,     -11.49844
533.288,50.16833,     -11.49993
533.804,50.22000,     -11.50112
534.325,50.27167,     -11.50321
534.842,50.32333,     -11.50580
535.357,50.37500,     -11.50849
535.876,50.42667,     -11.51088
536.391,50.47833,     -11.51257
536.905,50.53000,     -11.51357
537.42,50.58167,     -11.51476
537.936,50.63333,     -11.51595
538.452,50.68500,     -11.51764
538.972,50.73667,     -11.52002
539.488,50.78833,     -11.52251
540.002,50.84000,     -11.52430
540.524,50.89167,     -11.52609
541.039,50.94333,     -11.52858
541.557,50.99500,     -11.53087
542.072,51.04667,     -11.53296
542.588,51.09833,     -11.53445
543.103,51.15000,     -11.53574
543.619,51.20167,     -11.53713
544.135,51.25333,     -11.53881
544.654,51.30500,     -11.54130
545.174,51.35667,     -11.54359
545.689,51.40833,     -11.54608
546.205,51.46000,     -11.54787
546.721,51.51167,     -11.54935
547.238,51.56333,     -11.55064
547.751,51.61500,     -11.55173
548.266,51.66667,     -11.55242
548.782,51.71833,     -11.55331
549.298,51.77000,     -11.55529
549.817,51.82167,     -11.55758
550.334,51.87333,     -11.55997
550.852,51.92500,     -11.56205
551.369,51.97667,     -11.56334
551.89,52.02833,     -11.56422
552.404,52.08000,     -11.56561
552.92,52.13167,     -11.56790
553.436,52.18333,     -11.57039
553.95,52.23500,     -11.57297
554.468,52.28667,     -11.57516
554.982,52.33833,     -11.57705
555.5,52.39000,     -11.57863
556.015,52.44167,     -11.58032
556.533,52.49333,     -11.58160
557.052,52.54500,     -11.58268
557.572,52.59667,     -11.58366
558.089,52.64833,     -11.58455
558.608,52.70000,     -11.58573
559.124,52.75167,     -11.58712
559.641,52.80333,     -11.58840
560.156,52.85500,     -11.58999
560.671,52.90667,     -11.59138
561.186,52.95833,     -11.59356
561.705,53.01000,     -11.59574
562.222,53.06167,     -11.59763
562.737,53.11333,     -11.59901
563.254,53.16500,     -11.60110
563.771,53.21667,     -11.60268
564.286,53.26833,     -11.60506
564.805,53.32000,     -11.60684
565.32,53.37167,     -11.60833
565.84,53.42333,     -11.61001
566.357,53.47500,     -11.61149
566.873,53.52667,     -11.61297
567.389,53.57833,     -11.61466
567.904,53.63000,     -11.61674
568.421,53.68167,     -11.61842
568.937,53.73333,     -11.62050
569.455,53.78500,     -11.62249
569.969,53.83667,     -11.62377
570.49,53.88833,     -11.62525
571.006,53.94000,     -11.62683
571.521,53.99167,     -11.62841
572.039,54.04333,     -11.62979
572.554,54.09500,     -11.63177
573.068,54.14667,     -11.63365
573.585,54.19833,     -11.63584
574.102,54.25000,     -11.63771
574.622,54.30167,     -11.63929
575.139,54.35333,     -11.64117
575.656,54.40500,     -11.64285
576.176,54.45667,     -11.64393
576.694,54.50833,     -11.64501
577.212,54.56000,     -11.64659
577.728,54.61167,     -11.64877
578.243,54.66333,     -11.65085
578.757,54.71500,     -11.65263
579.273,54.76667,     -11.65401
579.789,54.81833,     -11.65489
580.303,54.87000,     -11.65597
580.823,54.92167,     -11.65724
581.342,54.97333,     -11.65842
581.861,55.02500,     -11.65989
582.376,55.07667,     -11.66127
582.896,55.12833,     -11.66275
583.411,55.18000,     -11.66463
583.928,55.23167,     -11.66681
584.442,55.28333,     -11.66898
584.959,55.33500,     -11.67106
585.472,55.38667,     -11.67324
585.99,55.43833,     -11.67512
586.507,55.49000,     -11.67699
587.022,55.54167,     -11.67857
587.539,55.59333,     -11.67964
588.058,55.64500,     -11.68052
588.575,55.69667,     -11.68139
589.09,55.74833,     -11.68407
589.606,55.80000,     -11.68665
590.119,55.85167,     -11.68882
590.636,55.90333,     -11.69040
591.153,55.95500,     -11.69137
591.672,56.00667,     -11.69204
592.187,56.05833,     -11.69302
592.706,56.11000,     -11.69429
593.226,56.16167,     -11.69566
593.744,56.21333,     -11.69744
594.259,56.26500,     -11.69931
594.778,56.31667,     -11.70048
595.295,56.36833,     -11.70186
595.809,56.42000,     -11.70343
596.323,56.47167,     -11.70501
596.843,56.52333,     -11.70798
597.358,56.57500,     -11.71085
597.875,56.62667,     -11.71312
598.394,56.67833,     -11.71449
598.913,56.73000,     -11.71496
599.429,56.78167,     -11.71564
599.948,56.83333,     -11.71610
600.466,56.88500,     -11.71708
600.977,56.93667,     -11.71885
601.493,56.98833,     -11.72113
602.01,57.04000,     -11.72349
602.529,57.09167,     -11.72536
603.045,57.14333,     -11.72683
603.563,57.19500,     -11.72800
604.076,57.24667,     -11.72998
604.589,57.29833,     -11.73225
605.104,57.35000,     -11.73462
605.621,57.40167,     -11.73669
606.136,57.45333,     -11.73856
606.652,57.50500,     -11.74003
607.168,57.55667,     -11.74180
607.685,57.60833,     -11.74326
608.201,57.66000,     -11.74463
608.715,57.71167,     -11.74590
609.234,57.76333,     -11.74727
609.751,57.81500,     -11.74874
610.269,57.86667,     -11.74980
610.786,57.91833,     -11.75117
611.304,57.97000,     -11.75304
611.819,58.02167,     -11.75501
612.334,58.07333,     -11.75748
612.851,58.12500,     -11.75964
613.369,58.17667,     -11.76051
613.887,58.22833,     -11.76087
614.406,58.28000,     -11.76224
614.921,58.33167,     -11.76361
615.437,58.38333,     -11.76608
615.954,58.43500,     -11.76934
616.468,58.48667,     -11.77231
616.983,58.53833,     -11.77478
617.501,58.59000,     -11.77704
618.016,58.64167,     -11.77891
618.533,58.69333,     -11.78097
619.048,58.74500,     -11.78334
619.564,58.79667,     -11.78570
620.08,58.84833,     -11.78827
620.598,58.90000,     -11.79083
621.114,58.95167,     -11.79179
621.63,59.00333,     -11.79366
622.147,59.05500,     -11.79753
622.664,59.10667,     -11.80019
623.179,59.15833,     -11.80105
623.697,59.21000,     -11.80292
624.214,59.26167,     -11.80618
624.73,59.31333,     -11.80954
625.249,59.36500,     -11.81121
625.768,59.41667,     -11.81187
626.283,59.46833,     -11.81263
626.799,59.52000,     -11.81360
627.316,59.57167,     -11.81666
627.83,59.62333,     -11.81982
628.344,59.67500,     -11.82409
628.856,59.72667,     -11.82705
629.374,59.77833,     -11.82911
629.887,59.83000,     -11.83168
630.406,59.88167,     -11.83434
630.924,59.93333,     -11.83649
631.443,59.98500,     -11.83795
631.959,60.03667,     -11.84032
632.478,60.08833,     -11.84228
632.996,60.14000,     -11.84414
633.513,60.19167,     -11.84640
634.029,60.24333,     -11.84916
634.544,60.29500,     -11.85202
635.061,60.34667,     -11.85398
635.576,60.39833,     -11.85685
636.089,60.45000,     -11.85961
636.605,60.50167,     -11.86197
637.123,60.55333,     -11.86403
637.637,60.60500,     -11.86659
638.155,60.65667,     -11.86925
638.672,60.70833,     -11.87181
639.184,60.76000,     -11.87577
639.702,60.81167,     -11.87853
640.219,60.86333,     -11.88008
640.737,60.91500,     -11.88124
641.255,60.96667,     -11.88340
641.774,61.01833,     -11.88596
642.289,61.07000,     -11.88862
642.805,61.12167,     -11.89148
643.322,61.17333,     -11.89424
643.836,61.22500,     -11.89640
644.353,61.27667,     -11.89876
644.865,61.32833,     -11.90142
645.379,61.38000,     -11.90397
645.896,61.43167,     -11.90653
646.415,61.48333,     -11.90849
646.931,61.53500,     -11.90984
647.447,61.58667,     -11.91200
647.964,61.63833,     -11.91456
648.484,61.69000,     -11.91731
648.999,61.74167,     -11.92017
649.516,61.79333,     -11.92283
650.033,61.84500,     -11.92488
650.549,61.89667,     -11.92664
651.069,61.94833,     -11.92790
651.582,62.00000,     -11.93005
652.1,62.05167,     -11.93231
652.615,62.10333,     -11.93477
653.132,62.15500,     -11.93752
653.65,62.20667,     -11.93988
654.169,62.25833,     -11.94203
654.685,62.31000,     -11.94419
655.205,62.36167,     -11.94644
655.721,62.41333,     -11.94840
656.24,62.46500,     -11.94995
656.755,62.51667,     -11.95111
657.269,62.56833,     -11.95287
657.785,62.62000,     -11.95472
658.302,62.67167,     -11.95658
658.814,62.72333,     -11.95834
659.332,62.77500,     -11.96039
659.849,62.82667,     -11.96254
660.365,62.87833,     -11.96399
660.884,62.93000,     -11.96565
661.401,62.98167,     -11.96700
661.915,63.03333,     -11.96816
662.43,63.08500,     -11.96971
662.946,63.13667,     -11.97107
663.458,63.18833,     -11.97263
663.976,63.24000,     -11.97348
664.493,63.29167,     -11.97413
665.011,63.34333,     -11.97568
665.529,63.39500,     -11.97803
666.047,63.44667,     -11.97999
666.563,63.49833,     -11.98154
667.08,63.55000,     -11.98239
667.597,63.60167,     -11.98345
668.113,63.65333,     -11.98460
668.629,63.70500,     -11.98525
669.143,63.75667,     -11.98661
669.658,63.80833,     -11.98816
670.173,63.86000,     -11.98971
670.691,63.91167,     -11.99167
671.207,63.96333,     -11.99382
671.72,64.01500,     -11.99587
672.237,64.06667,     -11.99762
672.755,64.11833,     -11.99887
673.267,64.17000,     -12.00013
673.788,64.22167,     -12.00128
674.305,64.27333,     -12.00253
674.819,64.32500,     -12.00388
675.336,64.37667,     -12.00483
675.852,64.42833,     -12.00549
676.369,64.48000,     -12.00603
676.885,64.53167,     -12.00679
677.401,64.58333,     -12.00804
677.918,64.63500,     -12.01009
678.434,64.68667,     -12.01344
678.951,64.73833,     -12.01659
679.465,64.79000,     -12.01864
679.98,64.84167,     -12.01950
680.498,64.89333,     -12.02065
681.013,64.94500,     -12.02170
681.531,64.99667,     -12.02295
682.048,65.04833,     -12.02369
682.565,65.10000,     -12.02425
683.081,65.15167,     -12.02600
683.597,65.20333,     -12.02825
684.11,65.25500,     -12.03010
684.631,65.30667,     -12.03205
685.144,65.35833,     -12.03470
685.665,65.41000,     -12.03584
686.182,65.46167,     -12.03639
686.702,65.51333,     -12.03684
687.218,65.56500,     -12.03719
687.733,65.61667,     -12.03744
688.248,65.66833,     -12.03789
688.767,65.72000,     -12.03864
689.281,65.77167,     -12.03969
689.798,65.82333,     -12.04214
690.315,65.87500,     -12.04529
690.829,65.92667,     -12.04804
691.349,65.97833,     -12.05019
691.867,66.03000,     -12.05123
692.389,66.08167,     -12.05138
692.907,66.13333,     -12.05203
693.423,66.18500,     -12.05308
693.939,66.23667,     -12.05443
694.452,66.28833,     -12.05568
694.968,66.34000,     -12.05713
695.484,66.39167,     -12.05847
696.001,66.44333,     -12.05932
696.517,66.49500,     -12.05987
697.037,66.54667,     -12.06052
697.556,66.59833,     -12.06156
698.077,66.65000,     -12.06291
698.592,66.70167,     -12.06546
699.107,66.75333,     -12.06841
699.62,66.80500,     -12.07176
700.133,66.85667,     -12.07441
700.648,66.90833,     -12.07596
701.164,66.96000,     -12.07630
701.684,67.01167,     -12.07615
702.203,67.06333,     -12.07599
702.72,67.11500,     -12.07584
703.236,67.16667,     -12.07609
703.753,67.21833,     -12.07704
704.269,67.27000,     -12.07889
704.784,67.32167,     -12.08174
705.301,67.37333,     -12.08509
705.816,67.42500,     -12.08763
706.332,67.47667,     -12.08908
706.846,67.52833,     -12.09053
707.363,67.58000,     -12.09188
707.878,67.63167,     -12.09233
708.398,67.68333,     -12.09237
708.915,67.73500,     -12.09272
709.432,67.78667,     -12.09426
709.948,67.83833,     -12.09561
710.461,67.89000,     -12.09746
710.977,67.94167,     -12.09911
711.493,67.99333,     -12.10046
712.012,68.04500,     -12.10110
712.524,68.09667,     -12.10175
713.04,68.14833,     -12.10270
713.557,68.20000,     -12.10395
714.073,68.25167,     -12.10530
714.586,68.30333,     -12.10684
715.102,68.35500,     -12.10909
715.616,68.40667,     -12.11074
716.134,68.45833,     -12.11209
716.652,68.51000,     -12.11353
717.169,68.56167,     -12.11458
717.686,68.61333,     -12.11582
718.204,68.66500,     -12.11697
718.722,68.71667,     -12.11812
719.242,68.76833,     -12.11946
719.759,68.82000,     -12.12031
720.276,68.87167,     -12.12105
720.791,68.92333,     -12.12190
721.308,68.97500,     -12.12315
721.824,69.02667,     -12.12440
722.336,69.07833,     -12.12505
722.853,69.13000,     -12.12589
723.371,69.18167,     -12.12664
723.891,69.23333,     -12.12798
724.409,69.28500,     -12.12943
724.926,69.33667,     -12.13177
725.442,69.38833,     -12.13332
725.958,69.44000,     -12.13397
726.476,69.49167,     -12.13481
726.991,69.54333,     -12.13636
727.506,69.59500,     -12.13831
728.021,69.64667,     -12.13965
728.538,69.69833,     -12.14150
729.054,69.75000,     -12.14354
729.572,69.80167,     -12.14519
730.09,69.85333,     -12.14643
730.608,69.90500,     -12.14778
731.123,69.95667,     -12.14962
731.641,70.00833,     -12.15077
732.155,70.06000,     -12.15141
732.672,70.11167,     -12.15196
733.183,70.16333,     -12.15281
733.698,70.21500,     -12.15355
734.214,70.26667,     -12.15430
734.727,70.31833,     -12.15484
735.244,70.37000,     -12.15569
735.762,70.42167,     -12.15693
736.282,70.47333,     -12.15817
736.797,70.52500,     -12.16002
737.314,70.57667,     -12.16286
737.83,70.62833,     -12.16590
738.347,70.68000,     -12.16775
738.862,70.73167,     -12.16909
739.375,70.78333,     -12.16984
739.892,70.83500,     -12.17018
740.405,70.88667,     -12.17033
740.925,70.93833,     -12.17077
741.444,70.99000,     -12.17161
741.964,71.04167,     -12.17245
742.48,71.09333,     -12.17299
742.994,71.14500,     -12.17354
743.508,71.19667,     -12.17448
744.024,71.24833,     -12.17553
744.539,71.30000,     -12.17657
745.054,71.35167,     -12.17741
745.571,71.40333,     -12.17835
746.086,71.45500,     -12.18019
746.601,71.50667,     -12.18264
747.121,71.55833,     -12.18598
747.635,71.61000,     -12.18782
748.156,71.66167,     -12.18876
748.673,71.71333,     -12.19000
749.187,71.76500,     -12.19124
749.705,71.81667,     -12.19208
750.222,71.86833,     -12.19212
750.736,71.92000,     -12.19237
751.254,71.97167,     -12.19351
751.767,72.02333,     -12.19615
752.282,72.07500,     -12.19879
752.799,72.12667,     -12.20053
753.317,72.17833,     -12.20057
753.836,72.23000,     -12.20050
754.351,72.28167,     -12.20104
754.87,72.33333,     -12.20148
755.385,72.38500,     -12.20232
755.898,72.43667,     -12.20337
756.411,72.48833,     -12.20461
756.927,72.54000,     -12.20645
757.445,72.59167,     -12.20918
757.964,72.64333,     -12.21162
758.483,72.69500,     -12.21245
758.999,72.74667,     -12.21329
759.512,72.79833,     -12.21413
760.028,72.85000,     -12.21587
760.546,72.90167,     -12.21731
761.057,72.95333,     -12.21865
761.577,73.00500,     -12.21908
762.092,73.05667,     -12.21982
762.611,73.10833,     -12.22026
763.128,73.16000,     -12.22079
763.646,73.21167,     -12.22143
764.164,73.26333,     -12.22247
764.68,73.31500,     -12.22350
765.193,73.36667,     -12.22474
765.709,73.41833,     -12.22578
766.223,73.47000,     -12.22711
766.741,73.52167,     -12.22935
767.258,73.57333,     -12.23198
767.777,73.62500,     -12.23461
768.293,73.67667,     -12.23795
768.812,73.72833,     -12.23968
769.331,73.78000,     -12.24002
769.85,73.83167,     -12.23985
770.364,73.88333,     -12.24008
770.882,73.93500,     -12.24102
771.4,73.98667,     -12.24315
771.914,74.03833,     -12.24619
772.427,74.09000,     -12.24912
772.946,74.14167,     -12.24985
773.462,74.19333,     -12.24949
773.98,74.24500,     -12.24912
774.496,74.29667,     -12.24915
775.01,74.34833,     -12.24968
775.523,74.40000,     -12.25052
776.038,74.45167,     -12.25165
776.558,74.50333,     -12.25278
777.08,74.55500,     -12.25400
777.598,74.60667,     -12.25533
778.118,74.65833,     -12.25646
778.636,74.71000,     -12.25759
779.152,74.76167,     -12.25813
779.669,74.81333,     -12.25876
780.18,74.86500,     -12.25979
780.696,74.91667,     -12.26092
781.212,74.96833,     -12.26265
781.733,75.02000,     -12.26387
782.248,75.07167,     -12.26690
782.767,75.12333,     -12.26913
783.284,75.17500,     -12.27136
783.798,75.22667,     -12.27369
784.317,75.27833,     -12.27651
784.833,75.33000,     -12.27774
785.349,75.38167,     -12.27767
785.867,75.43333,     -12.27690
786.379,75.48500,     -12.27643
786.895,75.53667,     -12.27665
787.416,75.58833,     -12.27768
787.924,75.64000,     -12.27971
788.437,75.69167,     -12.28233
788.955,75.74333,     -12.28516
789.468,75.79500,     -12.28718
789.987,75.84667,     -12.28831
790.504,75.89833,     -12.28903
791.021,75.95000,     -12.29015
791.54,76.00167,     -12.29148
792.063,76.05333,     -12.29160
792.583,76.10500,     -12.29132
793.097,76.15667,     -12.29114
793.616,76.20833,     -12.29177
794.131,76.26000,     -12.29319
794.648,76.31167,     -12.29551
795.163,76.36333,     -12.29804
795.678,76.41500,     -12.30026
796.194,76.46667,     -12.30198
796.711,76.51833,     -12.30320
797.229,76.57000,     -12.30482
797.747,76.62167,     -12.30614
798.262,76.67333,     -12.30696
798.782,76.72500,     -12.30808
799.304,76.77667,     -12.30840
799.503,76.79667,     -12.30843