File: data-raw/TGA/H_TGA.csv
#EXPORTTYPE:                 ,DATA SINGLE
#FILE:                       ,H.ngb-st9
#FORMAT:                     ,NETZSCH5
#FTYPE:                      ,ANSI
#IDENTITY:                   ,Saras
#DECIMAL:                    ,POINT
#SEPARATOR:                  ,COMMA
#MTYPE:                      ,TG
#INSTRUMENT:                 ,NETZSCH TG 209F1 Libra
#PROJECT:                    ,IL
#DATE/TIME:                  ,16/03/2017 2:18:03 PM (UTC+11)
#CORR. FILE:                 ,
#TEMPCAL:                    ,TCALZERO.TCX
#LABORATORY:                 ,Capture Lab
#OPERATOR:                   ,NJN
#REMARK:                     ,Training run
#SAMPLE:                     ,H
#SAMPLE MASS /mg:            ,15.2905
#MATERIAL:                   ,KHCO3
#TYPE OF CRUCIBLE:           ,Al2O3
#SAMPLE CRUCIBLE MASS /mg:   ,311.9764
#REFERENCE CRUCIBLE MASS /mg:,
#M.RANGE /mg:                ,2000
#CORR. CODE:                 ,090
#RANGE:                      ,32°C/10.0(K/min)/800°C
#SEGMENT:                    ,S1/1
#SEG. 1:                     ,32°C/10.0(K/min)/800°C

##Temp./°C,Time/min,Mass loss/mg
 31.50100, 0.00000,-1.871769e-003
 31.49900, 0.05167,-4.236664e-003
 31.56800, 0.10333,-6.285607e-003
 31.88800, 0.15500,-5.146502e-003
 32.27900, 0.20667,-4.552897e-003
 32.64200, 0.25833,-6.233758e-003
 33.01500, 0.31000,-8.201876e-003
 33.43700, 0.36167,-1.014657e-002
 33.91000, 0.41333,-1.195915e-002
 34.41000, 0.46500,-1.372683e-002
 34.93200, 0.51667,-1.567037e-002
 35.48700, 0.56833,-1.791029e-002
 36.06600, 0.62000,-2.037566e-002
 36.66900, 0.67167,-2.398633e-002
 37.28800, 0.72333,-2.771274e-002
 37.92500, 0.77500,-3.195146e-002
 38.56700, 0.82667,-3.589007e-002
 39.21800, 0.87833,-3.993661e-002
 39.87500, 0.93000,-4.383871e-002
 40.52900, 0.98167,-4.755301e-002
 41.18700, 1.03333,-5.170617e-002
 41.84000, 1.08500,-5.600953e-002
 42.48700, 1.13667,-6.082169e-002
 43.12800, 1.18833,-6.530300e-002
 43.76000, 1.24000,-7.066501e-002
 44.38600, 1.29167,-7.610480e-002
 45.00000, 1.34333,-8.149081e-002
 45.60000, 1.39500,-8.743394e-002
 46.19100, 1.44667,-9.318039e-002
 46.77500, 1.49833,-9.954286e-002
 47.34800, 1.55000,      -0.10578
 47.90700, 1.60167,      -0.11250
 48.45700, 1.65333,      -0.11915
 48.99900, 1.70500,      -0.12670
 49.52900, 1.75667,      -0.13364
 50.05400, 1.80833,      -0.14071
 50.57100, 1.86000,      -0.14829
 51.08500, 1.91167,      -0.15551
 51.59100, 1.96333,      -0.16342
 52.09300, 2.01500,      -0.17126
 52.59500, 2.06667,      -0.17972
 53.09000, 2.11833,      -0.18809
 53.58700, 2.17000,      -0.19667
 54.08600, 2.22167,      -0.20510
 54.57600, 2.27333,      -0.21318
 55.07100, 2.32500,      -0.22201
 55.56500, 2.37667,      -0.23053
 56.05800, 2.42833,      -0.23956
 56.55600, 2.48000,      -0.24823
 57.05200, 2.53167,      -0.25747
 57.55300, 2.58333,      -0.26634
 58.06000, 2.63500,      -0.27613
 58.55900, 2.68667,      -0.28586
 59.07000, 2.73833,      -0.29476
 59.58000, 2.79000,      -0.30484
 60.08800, 2.84167,      -0.31417
 60.59800, 2.89333,      -0.32423
 61.11300, 2.94500,      -0.33390
 61.62900, 2.99667,      -0.34386
 62.14400, 3.04833,      -0.35361
 62.66600, 3.10000,      -0.36369
 63.18200, 3.15167,      -0.37421
 63.70600, 3.20333,      -0.38409
 64.22600, 3.25500,      -0.39501
 64.74600, 3.30667,      -0.40473
 65.27100, 3.35833,      -0.41527
 65.79300, 3.41000,      -0.42561
 66.31700, 3.46167,      -0.43633
 66.83800, 3.51333,      -0.44633
 67.35700, 3.56500,      -0.45773
 67.87700, 3.61667,      -0.46795
 68.39700, 3.66833,      -0.47825
 68.91700, 3.72000,      -0.48886
 69.43800, 3.77167,      -0.49887
 69.96100, 3.82333,      -0.50951
 70.47900, 3.87500,      -0.51930
 71.00300, 3.92667,      -0.53003
 71.52400, 3.97833,      -0.53954
 72.04700, 4.03000,      -0.55045
 72.56700, 4.08167,      -0.56006
 73.08700, 4.13333,      -0.57026
 73.60800, 4.18500,      -0.58046
 74.12600, 4.23667,      -0.58984
 74.64600, 4.28833,      -0.60026
 75.16600, 4.34000,      -0.60956
 75.68500, 4.39167,      -0.61937
 76.20500, 4.44333,      -0.62798
 76.72600, 4.49500,      -0.63738
 77.24400, 4.54667,      -0.64678
 77.76600, 4.59833,      -0.65538
 78.28100, 4.65000,      -0.66455
 78.79900, 4.70167,      -0.67305
 79.31700, 4.75333,      -0.68194
 79.83100, 4.80500,      -0.69074
 80.35000, 4.85667,      -0.69993
 80.86700, 4.90833,      -0.70823
 81.38500, 4.96000,      -0.71704
 81.89900, 5.01167,      -0.72542
 82.41700, 5.06333,      -0.73324
 82.93500, 5.11500,      -0.74093
 83.45000, 5.16667,      -0.74832
 83.96700, 5.21833,      -0.75642
 84.48200, 5.27000,      -0.76350
 85.00100, 5.32167,      -0.77102
 85.51600, 5.37333,      -0.77800
 86.03200, 5.42500,      -0.78549
 86.54700, 5.47667,      -0.79268
 87.06500, 5.52833,      -0.79939
 87.58200, 5.58000,      -0.80648
 88.09900, 5.63167,      -0.81299
 88.61600, 5.68333,      -0.81987
 89.13400, 5.73500,      -0.82617
 89.65100, 5.78667,      -0.83237
 90.17100, 5.83833,      -0.83837
 90.68800, 5.89000,      -0.84436
 91.20300, 5.94167,      -0.85084
 91.72100, 5.99333,      -0.85675
 92.24400, 6.04500,      -0.86274
 92.75800, 6.09667,      -0.86833
 93.27800, 6.14833,      -0.87372
 93.79200, 6.20000,      -0.87891
 94.31100, 6.25167,      -0.88440
 94.83000, 6.30333,      -0.88960
 95.34700, 6.35500,      -0.89439
 95.86500, 6.40667,      -0.89889
 96.37900, 6.45833,      -0.90357
 96.89900, 6.51000,      -0.90837
 97.41500, 6.56167,      -0.91266
 97.93200, 6.61333,      -0.91705
 98.45000, 6.66500,      -0.92134
 98.96800, 6.71667,      -0.92613
 99.48200, 6.76833,      -0.93021
100, 6.82000,      -0.93381
100.517, 6.87167,      -0.93772
101.033, 6.92333,      -0.94133
101.552, 6.97500,      -0.94566
102.069, 7.02667,      -0.94937
102.586, 7.07833,      -0.95318
103.102, 7.13000,      -0.95678
103.616, 7.18167,      -0.96027
104.133, 7.23333,      -0.96360
104.643, 7.28500,      -0.96668
105.161, 7.33667,      -0.96939
105.677, 7.38833,      -0.97209
106.192, 7.44000,      -0.97520
106.71, 7.49167,      -0.97781
107.227, 7.54333,      -0.98091
107.743, 7.59500,      -0.98380
108.256, 7.64667,      -0.98660
108.772, 7.69833,      -0.98919
109.288, 7.75000,      -0.99229
109.802, 7.80167,      -0.99538
110.321, 7.85333,      -0.99768
110.837, 7.90500,      -0.99927
111.356, 7.95667,      -1.00077
111.87, 8.00833,      -1.00275
112.385, 8.06000,      -1.00473
112.903, 8.11167,      -1.00703
113.418, 8.16333,      -1.00921
113.937, 8.21500,      -1.01160
114.45, 8.26667,      -1.01377
114.966, 8.31833,      -1.01566
115.484, 8.37000,      -1.01694
115.996, 8.42167,      -1.01771
116.513, 8.47333,      -1.01909
117.032, 8.52500,      -1.02097
117.548, 8.57667,      -1.02285
118.063, 8.62833,      -1.02412
118.581, 8.68000,      -1.02531
119.099, 8.73167,      -1.02649
119.612, 8.78333,      -1.02755
120.129, 8.83500,      -1.02892
120.645, 8.88667,      -1.03020
121.165, 8.93833,      -1.03147
121.678, 8.99000,      -1.03273
122.19, 9.04167,      -1.03409
122.711, 9.09333,      -1.03537
123.23, 9.14500,      -1.03654
123.746, 9.19667,      -1.03770
124.263, 9.24833,      -1.03876
124.779, 9.30000,      -1.04013
125.295, 9.35167,      -1.04139
125.813, 9.40333,      -1.04255
126.328, 9.45500,      -1.04391
126.846, 9.50667,      -1.04528
127.361, 9.55833,      -1.04683
127.878, 9.61000,      -1.04849
128.393, 9.66167,      -1.05074
128.909, 9.71333,      -1.05229
129.424, 9.76500,      -1.05365
129.943, 9.81667,      -1.05501
130.457, 9.86833,      -1.05626
130.974, 9.92000,      -1.05742
131.492, 9.97167,      -1.05858
132.008,10.02333,      -1.05982
132.525,10.07500,      -1.06098
133.039,10.12667,      -1.06242
133.556,10.17833,      -1.06337
134.071,10.23000,      -1.06433
134.591,10.28167,      -1.06618
135.108,10.33333,      -1.06883
135.626,10.38500,      -1.07118
136.142,10.43667,      -1.07302
136.658,10.48833,      -1.07597
137.175,10.54000,      -1.07701
137.692,10.59167,      -1.07925
138.207,10.64333,      -1.08040
138.725,10.69500,      -1.08314
139.241,10.74667,      -1.08468
139.758,10.79833,      -1.08663
140.276,10.85000,      -1.08907
140.791,10.90167,      -1.09151
141.311,10.95333,      -1.09436
141.83,11.00500,      -1.09690
142.349,11.05667,      -1.09983
142.863,11.10833,      -1.10227
143.38,11.16000,      -1.10491
143.896,11.21167,      -1.10774
144.417,11.26333,      -1.11058
144.933,11.31500,      -1.11372
145.45,11.36667,      -1.11716
145.968,11.41833,      -1.12060
146.487,11.47000,      -1.12373
147.001,11.52167,      -1.12717
147.524,11.57333,      -1.13010
148.039,11.62500,      -1.13363
148.553,11.67667,      -1.13696
149.069,11.72833,      -1.14059
149.586,11.78000,      -1.14432
150.1,11.83167,      -1.14875
150.616,11.88333,      -1.15288
151.13,11.93500,      -1.15662
151.649,11.98667,      -1.16035
152.168,12.03833,      -1.16459
152.686,12.09000,      -1.16942
153.199,12.14167,      -1.17404
153.714,12.19333,      -1.17857
154.232,12.24500,      -1.18280
154.75,12.29667,      -1.18644
155.267,12.34833,      -1.19127
155.784,12.40000,      -1.19660
156.301,12.45167,      -1.20193
156.819,12.50333,      -1.20736
157.337,12.55500,      -1.21299
157.853,12.60667,      -1.21781
158.37,12.65833,      -1.22294
158.885,12.71000,      -1.22766
159.4,12.76167,      -1.23349
159.916,12.81333,      -1.23942
160.431,12.86500,      -1.24464
160.951,12.91667,      -1.25028
161.468,12.96833,      -1.25521
161.986,13.02000,      -1.26093
162.501,13.07167,      -1.26616
163.019,13.12333,      -1.27178
163.534,13.17500,      -1.27800
164.054,13.22667,      -1.28414
164.567,13.27833,      -1.29046
165.082,13.33000,      -1.29618
165.596,13.38167,      -1.30180
166.114,13.43333,      -1.30764
166.628,13.48500,      -1.31366
167.148,13.53667,      -1.31939
167.664,13.58833,      -1.32582
168.183,13.64000,      -1.33235
168.697,13.69167,      -1.33937
169.216,13.74333,      -1.34630
169.729,13.79500,      -1.35312
170.246,13.84667,      -1.36045
170.762,13.89833,      -1.36748
171.279,13.95000,      -1.37500
171.795,14.00167,      -1.38173
172.313,14.05333,      -1.38916
172.828,14.10500,      -1.39618
173.345,14.15667,      -1.40421
173.861,14.20833,      -1.41243
174.381,14.26000,      -1.41967
174.898,14.31167,      -1.42790
175.414,14.36333,      -1.43572
175.933,14.41500,      -1.44395
176.45,14.46667,      -1.45128
176.966,14.51833,      -1.45920
177.485,14.57000,      -1.46693
178.001,14.62167,      -1.47546
178.521,14.67333,      -1.48448
179.036,14.72500,      -1.49321
179.552,14.77667,      -1.50284
180.068,14.82833,      -1.51217
180.587,14.88000,      -1.52210
181.104,14.93167,      -1.53163
181.619,14.98333,      -1.54216
182.137,15.03500,      -1.55209
182.652,15.08667,      -1.56202
183.169,15.13833,      -1.57145
183.687,15.19000,      -1.58038
184.205,15.24167,      -1.59031
184.719,15.29333,      -1.60043
185.236,15.34500,      -1.61157
185.755,15.39667,      -1.62181
186.272,15.44833,      -1.63253
186.79,15.50000,      -1.64217
187.307,15.55167,      -1.65210
187.824,15.60333,      -1.66223
188.34,15.65500,      -1.67167
188.857,15.70667,      -1.68210
189.373,15.75833,      -1.69203
189.89,15.81000,      -1.70357
190.407,15.86167,      -1.71450
190.921,15.91333,      -1.72584
191.437,15.96500,      -1.73628
191.954,16.01667,      -1.74711
192.47,16.06833,      -1.75775
192.989,16.12000,      -1.76739
193.506,16.17167,      -1.77793
194.022,16.22333,      -1.78847
194.54,16.27500,      -1.79951
195.055,16.32667,      -1.81125
195.571,16.37833,      -1.82258
196.093,16.43000,      -1.83223
196.61,16.48167,      -1.84247
197.127,16.53333,      -1.85252
197.644,16.58500,      -1.86216
198.162,16.63667,      -1.87180
198.677,16.68833,      -1.88144
199.195,16.74000,      -1.89228
199.711,16.79167,      -1.90213
200.224,16.84333,      -1.91287
200.742,16.89500,      -1.92252
201.256,16.94667,      -1.93256
201.775,16.99833,      -1.94271
202.292,17.05000,      -1.95206
202.81,17.10167,      -1.96201
203.325,17.15333,      -1.97155
203.841,17.20500,      -1.98230
204.358,17.25667,      -1.99144
204.874,17.30833,      -2.00119
205.39,17.36000,      -2.01124
205.907,17.41167,      -2.02049
206.424,17.46333,      -2.03053
206.94,17.51500,      -2.03988
207.456,17.56667,      -2.04943
207.969,17.61833,      -2.05907
208.487,17.67000,      -2.06922
209.003,17.72167,      -2.07927
209.515,17.77333,      -2.08972
210.035,17.82500,      -2.09877
210.554,17.87667,      -2.10822
211.067,17.92833,      -2.11777
211.588,17.98000,      -2.12742
212.105,18.03167,      -2.13787
212.619,18.08333,      -2.14761
213.137,18.13500,      -2.15756
213.653,18.18667,      -2.16681
214.172,18.23833,      -2.17676
214.687,18.29000,      -2.18611
215.204,18.34167,      -2.19636
215.723,18.39333,      -2.20671
216.238,18.44500,      -2.21656
216.755,18.49667,      -2.22691
217.274,18.54833,      -2.23596
217.79,18.60000,      -2.24651
218.306,18.65167,      -2.25596
218.827,18.70333,      -2.26581
219.341,18.75500,      -2.27536
219.857,18.80667,      -2.28571
220.373,18.85833,      -2.29656
220.892,18.91000,      -2.30661
221.408,18.96167,      -2.31656
221.926,19.01333,      -2.32661
222.44,19.06500,      -2.33766
222.955,19.11667,      -2.34881
223.473,19.16833,      -2.35956
223.992,19.22000,      -2.36941
224.509,19.27167,      -2.37996
225.026,19.32333,      -2.39062
225.539,19.37500,      -2.40066
226.057,19.42667,      -2.41152
226.572,19.47833,      -2.42157
227.09,19.53000,      -2.43222
227.605,19.58167,      -2.44287
228.12,19.63333,      -2.45532
228.636,19.68500,      -2.46637
229.151,19.73667,      -2.47802
229.668,19.78833,      -2.48938
230.183,19.84000,      -2.50033
230.7,19.89167,      -2.51228
231.213,19.94333,      -2.52323
231.732,19.99500,      -2.53528
232.25,20.04667,      -2.54644
232.765,20.09833,      -2.55859
233.283,20.15000,      -2.57014
233.801,20.20167,      -2.58279
234.32,20.25333,      -2.59574
234.836,20.30500,      -2.60770
235.353,20.35667,      -2.62075
235.868,20.40833,      -2.63330
236.386,20.46000,      -2.64665
236.903,20.51167,      -2.65950
237.419,20.56333,      -2.67306
237.936,20.61500,      -2.68671
238.45,20.66667,      -2.71216
238.968,20.71833,      -2.72191
239.485,20.77000,      -2.73276
240.004,20.82167,      -2.74532
240.519,20.87333,      -2.76767
241.036,20.92500,      -2.77842
241.55,20.97667,      -2.79027
242.07,21.02833,      -2.81203
242.584,21.08000,      -2.82578
243.099,21.13167,      -2.83723
243.616,21.18333,      -2.86158
244.133,21.23500,      -2.87153
244.649,21.28667,      -2.88879
245.165,21.33833,      -2.90944
245.683,21.39000,      -2.92079
246.2,21.44167,      -2.94414
246.717,21.49333,      -2.96210
247.235,21.54500,      -2.98025
247.752,21.59667,      -2.99210
248.269,21.64833,      -3.00465
248.786,21.70000,      -3.03300
249.3,21.75167,      -3.05105
249.814,21.80333,      -3.06891
250.331,21.85500,      -3.08826
250.842,21.90667,      -3.10641
251.363,21.95833,      -3.12666
251.879,22.01000,      -3.14572
252.396,22.06167,      -3.16657
252.911,22.11333,      -3.18762
253.427,22.16500,      -3.20757
253.942,22.21667,      -3.22842
254.461,22.26833,      -3.24847
254.974,22.32000,      -3.27053
255.493,22.37167,      -3.29128
256.008,22.42333,      -3.31473
256.525,22.47500,      -3.33728
257.044,22.52667,      -3.35933
257.562,22.57833,      -3.38289
258.082,22.63000,      -3.40524
258.599,22.68167,      -3.42909
259.114,22.73333,      -3.45224
259.63,22.78500,      -3.47699
260.147,22.83667,      -3.50104
260.662,22.88833,      -3.52659
261.181,22.94000,      -3.55044
261.697,22.99167,      -3.57669
262.211,23.04333,      -3.60314
262.727,23.09500,      -3.62779
263.242,23.14667,      -3.65435
263.757,23.19833,      -3.67970
264.274,23.25000,      -3.70645
264.791,23.30167,      -3.73190
265.307,23.35333,      -3.75955
265.826,23.40500,      -3.78700
266.345,23.45667,      -3.81225
266.862,23.50833,      -3.83920
267.38,23.56000,      -3.86485
267.897,23.61167,      -3.89290
268.414,23.66333,      -3.91965
268.928,23.71500,      -3.94810
269.444,23.76667,      -3.97505
269.96,23.81833,      -4.00370
270.476,23.87000,      -4.03265
270.992,23.92167,      -4.05960
271.509,23.97333,      -4.08844
272.025,24.02500,      -4.11589
272.541,24.07667,      -4.14434
273.055,24.12833,      -4.17119
273.57,24.18000,      -4.20054
274.086,24.23167,      -4.22779
274.604,24.28333,      -4.25714
275.119,24.33500,      -4.28619
275.635,24.38667,      -4.31363
276.15,24.43833,      -4.34398
276.667,24.49000,      -4.37173
277.184,24.54167,      -4.40218
277.698,24.59333,      -4.43023
278.216,24.64500,      -4.46027
278.73,24.69667,      -4.48912
279.244,24.74833,      -4.51917
279.762,24.80000,      -4.55022
280.28,24.85167,      -4.57906
280.8,24.90333,      -4.60861
281.317,24.95500,      -4.63636
281.836,25.00667,      -4.66630
282.35,25.05833,      -4.69545
282.864,25.11000,      -4.72690
283.381,25.16167,      -4.75584
283.898,25.21333,      -4.78659
284.415,25.26500,      -4.81764
284.935,25.31667,      -4.84698
285.451,25.36833,      -4.87783
285.966,25.42000,      -4.90687
286.484,25.47167,      -4.93752
287.001,25.52333,      -4.96616
287.539,25.57500,      -4.99821
288.069,25.62667,      -5.02815
288.583,25.67833,      -5.05999
289.096,25.73000,      -5.09194
289.605,25.78167,      -5.12288
290.111,25.83333,      -5.15463
290.621,25.88500,      -5.18447
291.13,25.93667,      -5.21552
291.645,25.98833,      -5.24626
292.157,26.04000,      -5.27880
292.673,26.09167,      -5.30855
293.189,26.14333,      -5.34009
293.705,26.19500,      -5.37293
294.224,26.24667,      -5.40237
294.743,26.29833,      -5.43462
295.26,26.35000,      -5.46526
295.777,26.40167,      -5.49840
296.294,26.45333,      -5.52844
296.812,26.50500,      -5.56138
297.329,26.55667,      -5.59302
297.844,26.60833,      -5.62526
298.361,26.66000,      -5.65811
298.877,26.71167,      -5.68985
299.395,26.76333,      -5.72389
299.914,26.81500,      -5.75573
300.43,26.86667,      -5.78977
300.947,26.91833,      -5.82221
301.466,26.97000,      -5.85615
301.983,27.02167,      -5.88799
302.498,27.07333,      -5.92123
303.014,27.12500,      -5.95517
303.532,27.17667,      -5.98891
304.051,27.22833,      -6.02405
304.564,27.28000,      -6.05769
305.084,27.33167,      -6.09313
305.599,27.38333,      -6.12577
306.115,27.43500,      -6.16251
306.629,27.48667,      -6.19795
307.145,27.53833,      -6.23509
307.664,27.59000,      -6.27313
308.176,27.64167,      -6.30907
308.693,27.69333,      -6.34721
309.209,27.74500,      -6.38235
309.727,27.79667,      -6.42089
310.242,27.84833,      -6.45763
310.761,27.90000,      -6.49567
311.278,27.95167,      -6.53261
311.794,28.00333,      -6.57505
312.31,28.05500,      -6.61609
312.828,28.10667,      -6.65333
313.345,28.15833,      -6.69387
313.863,28.21000,      -6.73141
314.378,28.26167,      -6.77265
314.898,28.31333,      -6.81119
315.414,28.36500,      -6.85253
315.931,28.41667,      -6.89437
316.446,28.46833,      -6.93441
316.96,28.52000,      -6.97685
317.474,28.57167,      -7.01569
317.992,28.62333,      -7.05723
318.511,28.67500,      -7.09577
319.027,28.72667,      -7.13731
319.546,28.77833,      -7.17405
320.061,28.83000,      -7.21459
320.577,28.88167,      -7.25343
321.095,28.93333,      -7.28907
321.609,28.98500,      -7.32731
322.128,29.03667,      -7.36295
322.646,29.08833,      -7.39959
323.159,29.14000,      -7.43323
323.674,29.19167,      -7.46957
324.188,29.24333,      -7.50301
324.702,29.29500,      -7.53565
325.216,29.34667,      -7.56949
325.731,29.39833,      -7.60243
326.243,29.45000,      -7.63397
326.76,29.50167,      -7.66291
327.275,29.55333,      -7.69315
327.791,29.60500,      -7.72009
328.307,29.65667,      -7.74863
328.824,29.70833,      -7.77447
329.34,29.76000,      -7.80080
329.856,29.81167,      -7.82604
330.372,29.86333,      -7.85098
330.89,29.91500,      -7.87542
331.406,29.96667,      -7.89706
331.924,30.01833,      -7.92010
332.441,30.07000,      -7.94094
332.958,30.12167,      -7.96348
333.472,30.17333,      -7.98342
333.987,30.22500,      -8.00286
334.507,30.27667,      -8.02099
335.022,30.32833,      -8.04033
335.542,30.38000,      -8.05927
336.059,30.43167,      -8.07611
336.574,30.48333,      -8.08855
337.089,30.53500,      -8.10689
337.607,30.58667,      -8.11802
338.125,30.63833,      -8.13036
338.641,30.69000,      -8.15270
339.155,30.74167,      -8.16634
339.671,30.79333,      -8.17788
340.189,30.84500,      -8.19152
340.706,30.89667,      -8.21475
341.22,30.94833,      -8.22459
341.738,31.00000,      -8.23483
342.256,31.05167,      -8.24637
342.771,31.10333,      -8.25900
343.288,31.15500,      -8.27894
343.803,31.20667,      -8.28788
344.316,31.25833,      -8.29802
344.837,31.31000,      -8.30905
345.352,31.36167,      -8.31989
345.867,31.41333,      -8.33183
346.385,31.46500,      -8.34296
346.9,31.51667,      -8.35490
347.419,31.56833,      -8.36584
347.937,31.62000,      -8.37817
348.45,31.67167,      -8.38931
348.966,31.72333,      -8.40105
349.484,31.77500,      -8.41208
349.999,31.82667,      -8.42282
350.515,31.87833,      -8.43356
351.034,31.93000,      -8.44339
351.552,31.98167,      -8.45413
352.068,32.03333,      -8.46356
352.586,32.08500,      -8.47370
353.105,32.13667,      -8.48313
353.618,32.18833,      -8.49367
354.136,32.24000,      -8.50391
354.652,32.29167,      -8.51324
355.167,32.34333,      -8.52348
355.684,32.39500,      -8.53291
356.199,32.44667,      -8.54305
356.714,32.49833,      -8.55178
357.231,32.55000,      -8.56112
357.748,32.60167,      -8.57035
358.265,32.65333,      -8.57979
358.778,32.70500,      -8.58972
359.296,32.75667,      -8.59886
359.813,32.80833,      -8.60829
360.332,32.86000,      -8.61632
360.849,32.91167,      -8.62516
361.365,32.96333,      -8.63399
361.881,33.01500,      -8.64312
362.4,33.06667,      -8.65206
362.917,33.11833,      -8.66099
363.429,33.17000,      -8.67073
363.944,33.22167,      -8.67956
364.461,33.27333,      -8.68829
364.975,33.32500,      -8.69693
365.492,33.37667,      -8.70606
366.01,33.42833,      -8.71479
366.527,33.48000,      -8.72352
367.046,33.53167,      -8.73225
367.565,33.58333,      -8.74059
368.078,33.63500,      -8.74902
368.595,33.68667,      -8.75695
369.115,33.73833,      -8.76558
369.627,33.79000,      -8.77331
370.145,33.84167,      -8.78184
370.661,33.89333,      -8.78978
371.179,33.94500,      -8.79821
371.693,33.99667,      -8.80634
372.212,34.04833,      -8.81457
372.726,34.10000,      -8.82300
373.241,34.15167,      -8.83093
373.758,34.20333,      -8.83936
374.274,34.25500,      -8.84729
374.791,34.30667,      -8.85582
375.308,34.35833,      -8.86385
375.822,34.41000,      -8.87218
376.342,34.46167,      -8.88061
376.856,34.51333,      -8.88854
377.373,34.56500,      -8.89697
377.887,34.61667,      -8.90520
378.403,34.66833,      -8.91343
378.921,34.72000,      -8.92106
379.436,34.77167,      -8.92879
379.952,34.82333,      -8.93611
380.468,34.87500,      -8.94454
380.985,34.92667,      -8.95257
381.501,34.97833,      -8.95980
382.019,35.03000,      -8.96773
382.533,35.08167,      -8.97535
383.05,35.13333,      -8.98348
383.566,35.18500,      -8.99071
384.083,35.23667,      -8.99933
384.599,35.28833,      -9.00696
385.116,35.34000,      -9.01489
385.634,35.39167,      -9.02281
386.148,35.44333,      -9.03054
386.664,35.49500,      -9.03847
387.18,35.54667,      -9.04589
387.696,35.59833,      -9.05342
388.211,35.65000,      -9.06074
388.727,35.70167,      -9.06827
389.244,35.75333,      -9.07689
389.759,35.80500,      -9.08462
390.276,35.85667,      -9.09244
390.795,35.90833,      -9.09986
391.309,35.96000,      -9.10749
391.825,36.01167,      -9.11472
392.341,36.06333,      -9.12174
392.859,36.11500,      -9.12886
393.374,36.16667,      -9.13629
393.894,36.21833,      -9.14311
394.41,36.27000,      -9.15103
394.925,36.32167,      -9.15885
395.441,36.37333,      -9.16638
395.956,36.42500,      -9.17430
396.472,36.47667,      -9.18132
396.988,36.52833,      -9.18875
397.505,36.58000,      -9.19557
398.021,36.63167,      -9.20299
398.535,36.68333,      -9.21021
399.05,36.73500,      -9.21773
399.566,36.78667,      -9.22455
400.083,36.83833,      -9.23257
400.598,36.89000,      -9.24109
401.114,36.94167,      -9.24791
401.635,36.99333,      -9.25423
402.152,37.04500,      -9.26065
402.67,37.09667,      -9.26767
403.185,37.14833,      -9.27529
403.702,37.20000,      -9.28321
404.219,37.25167,      -9.29063
404.737,37.30333,      -9.29725
405.249,37.35500,      -9.30417
405.768,37.40667,      -9.31079
406.28,37.45833,      -9.31731
406.796,37.51000,      -9.32403
407.311,37.56167,      -9.33135
407.83,37.61333,      -9.33796
408.346,37.66500,      -9.34568
408.862,37.71667,      -9.35280
409.377,37.76833,      -9.35962
409.895,37.82000,      -9.36664
410.41,37.87167,      -9.37356
410.922,37.92333,      -9.38098
411.439,37.97500,      -9.38749
411.957,38.02667,      -9.39421
412.474,38.07833,      -9.40072
412.993,38.13000,      -9.40774
413.51,38.18167,      -9.41496
414.028,38.23333,      -9.42177
414.545,38.28500,      -9.42869
415.061,38.33667,      -9.43481
415.578,38.38833,      -9.44152
416.097,38.44000,      -9.44774
416.61,38.49167,      -9.45456
417.127,38.54333,      -9.46088
417.647,38.59500,      -9.46769
418.162,38.64667,      -9.47461
418.679,38.69833,      -9.48122
419.193,38.75000,      -9.48814
419.71,38.80167,      -9.49446
420.228,38.85333,      -9.50077
420.747,38.90500,      -9.50698
421.262,38.95667,      -9.51380
421.776,39.00833,      -9.51972
422.295,39.06000,      -9.52663
422.811,39.11167,      -9.53345
423.327,39.16333,      -9.53996
423.842,39.21500,      -9.54668
424.358,39.26667,      -9.55259
424.874,39.31833,      -9.55931
425.39,39.37000,      -9.56542
425.907,39.42167,      -9.57193
426.421,39.47333,      -9.57855
426.934,39.52500,      -9.58467
427.451,39.57667,      -9.59108
427.965,39.62833,      -9.59680
428.482,39.68000,      -9.60321
429,39.73167,      -9.60912
429.516,39.78333,      -9.61583
430.033,39.83500,      -9.62245
430.548,39.88667,      -9.62906
431.066,39.93833,      -9.63497
431.584,39.99000,      -9.64098
432.101,40.04167,      -9.64700
432.618,40.09333,      -9.65271
433.135,40.14500,      -9.65832
433.649,40.19667,      -9.66404
434.165,40.24833,      -9.67045
434.684,40.30000,      -9.67636
435.2,40.35167,      -9.68237
435.718,40.40333,      -9.68828
436.232,40.45500,      -9.69390
436.75,40.50667,      -9.69971
437.264,40.55833,      -9.70542
437.782,40.61000,      -9.71143
438.3,40.66167,      -9.71724
438.817,40.71333,      -9.72345
439.334,40.76500,      -9.72936
439.849,40.81667,      -9.73598
440.361,40.86833,      -9.74149
440.876,40.92000,      -9.74710
441.393,40.97167,      -9.75251
441.911,41.02333,      -9.75742
442.425,41.07500,      -9.76313
442.944,41.12667,      -9.76824
443.46,41.17833,      -9.77435
443.974,41.23000,      -9.78026
444.488,41.28167,      -9.78617
445.003,41.33333,      -9.79158
445.521,41.38500,      -9.79759
446.038,41.43667,      -9.80340
446.554,41.48833,      -9.80901
447.071,41.54000,      -9.81471
447.59,41.59167,      -9.81972
448.109,41.64333,      -9.82473
448.621,41.69500,      -9.82964
449.141,41.74667,      -9.83495
449.653,41.79833,      -9.83996
450.168,41.85000,      -9.84527
450.687,41.90167,      -9.85068
451.201,41.95333,      -9.85549
451.719,42.00500,      -9.86149
452.236,42.05667,      -9.86680
452.751,42.10833,      -9.87221
453.265,42.16000,      -9.87692
453.782,42.21167,      -9.88223
454.296,42.26333,      -9.88673
454.814,42.31500,      -9.89184
455.332,42.36667,      -9.89705
455.85,42.41833,      -9.90165
456.365,42.47000,      -9.90706
456.88,42.52167,      -9.91147
457.397,42.57333,      -9.91588
457.913,42.62500,      -9.92048
458.431,42.67667,      -9.92539
458.953,42.72833,      -9.92979
459.469,42.78000,      -9.93500
459.984,42.83167,      -9.94020
460.5,42.88333,      -9.94511
461.014,42.93500,      -9.95032
461.528,42.98667,      -9.95533
462.044,43.03833,      -9.96013
462.558,43.09000,      -9.96454
463.07,43.14167,      -9.96945
463.589,43.19333,      -9.97445
464.102,43.24500,      -9.97936
464.617,43.29667,      -9.98426
465.131,43.34833,      -9.98917
465.651,43.40000,      -9.99437
466.166,43.45167,      -9.99808
466.682,43.50333,     -10.00278
467.201,43.55500,     -10.00728
467.718,43.60667,     -10.01179
468.236,43.65833,     -10.01569
468.752,43.71000,     -10.01949
469.269,43.76167,     -10.02420
469.781,43.81333,     -10.02821
470.3,43.86500,     -10.03231
470.819,43.91667,     -10.03551
471.337,43.96833,     -10.03951
471.855,44.02000,     -10.04321
472.369,44.07167,     -10.04732
472.884,44.12333,     -10.05152
473.401,44.17500,     -10.05573
473.916,44.22667,     -10.06003
474.432,44.27833,     -10.06433
474.949,44.33000,     -10.06843
475.465,44.38167,     -10.07234
475.979,44.43333,     -10.07654
476.494,44.48500,     -10.08034
477.011,44.53667,     -10.08475
477.524,44.58833,     -10.08915
478.042,44.64000,     -10.09325
478.559,44.69167,     -10.09745
479.071,44.74333,     -10.10186
479.59,44.79500,     -10.10575
480.103,44.84667,     -10.10886
480.62,44.89833,     -10.11236
481.14,44.95000,     -10.11556
481.655,45.00167,     -10.11916
482.171,45.05333,     -10.12256
482.688,45.10500,     -10.12626
483.204,45.15667,     -10.12986
483.72,45.20833,     -10.13346
484.237,45.26000,     -10.13696
484.752,45.31167,     -10.14006
485.268,45.36333,     -10.14366
485.784,45.41500,     -10.14807
486.297,45.46667,     -10.15307
486.81,45.51833,     -10.15747
487.325,45.57000,     -10.16097
487.845,45.62167,     -10.16446
488.362,45.67333,     -10.16726
488.883,45.72500,     -10.17046
489.399,45.77667,     -10.17356
489.916,45.82833,     -10.17636
490.435,45.88000,     -10.17926
490.952,45.93167,     -10.18276
491.467,45.98333,     -10.18645
491.984,46.03500,     -10.19035
492.5,46.08667,     -10.19395
493.014,46.13833,     -10.19765
493.529,46.19000,     -10.20115
494.047,46.24167,     -10.20425
494.563,46.29333,     -10.20755
495.078,46.34500,     -10.21054
495.592,46.39667,     -10.21365
496.109,46.44833,     -10.21704
496.621,46.50000,     -10.22054
497.138,46.55167,     -10.22434
497.653,46.60333,     -10.22704
498.17,46.65500,     -10.22993
498.688,46.70667,     -10.23233
499.205,46.75833,     -10.23592
499.723,46.81000,     -10.23902
500.24,46.86167,     -10.24201
500.754,46.91333,     -10.24562
501.274,46.96500,     -10.24831
501.788,47.01667,     -10.25151
502.304,47.06833,     -10.25451
502.82,47.12000,     -10.25750
503.335,47.17167,     -10.26070
503.853,47.22333,     -10.26349
504.366,47.27500,     -10.26609
504.881,47.32667,     -10.26909
505.398,47.37833,     -10.27168
505.912,47.43000,     -10.27428
506.429,47.48167,     -10.27708
506.946,47.53333,     -10.27957
507.461,47.58500,     -10.28297
507.979,47.63667,     -10.28616
508.494,47.68833,     -10.28936
509.008,47.74000,     -10.29175
509.529,47.79167,     -10.29504
510.049,47.84333,     -10.29754
510.564,47.89500,     -10.29973
511.081,47.94667,     -10.30263
511.597,47.99833,     -10.30492
512.115,48.05000,     -10.30752
512.633,48.10167,     -10.30981
513.147,48.15333,     -10.31231
513.662,48.20500,     -10.31471
514.177,48.25667,     -10.31700
514.692,48.30833,     -10.32000
515.208,48.36000,     -10.32289
515.722,48.41167,     -10.32659
516.236,48.46333,     -10.32998
516.751,48.51500,     -10.33298
517.265,48.56667,     -10.33587
517.782,48.61833,     -10.33876
518.298,48.67000,     -10.34126
518.817,48.72167,     -10.34295
519.335,48.77333,     -10.34434
519.853,48.82500,     -10.34603
520.367,48.87667,     -10.34843
520.886,48.92833,     -10.35122
521.402,48.98000,     -10.35392
521.919,49.03167,     -10.35661
522.437,49.08333,     -10.35930
522.951,49.13500,     -10.36189
523.465,49.18667,     -10.36469
523.979,49.23833,     -10.36708
524.497,49.29000,     -10.36888
525.014,49.34167,     -10.37127
525.529,49.39333,     -10.37366
526.046,49.44500,     -10.37595
526.567,49.49667,     -10.37864
527.083,49.54833,     -10.38093
527.6,49.60000,     -10.38272
528.118,49.65167,     -10.38452
528.632,49.70333,     -10.38661
529.15,49.75500,     -10.38890
529.665,49.80667,     -10.39040
530.177,49.85833,     -10.39229
530.69,49.91000,     -10.39478
531.206,49.96167,     -10.39758
531.72,50.01333,     -10.40027
532.239,50.06500,     -10.40245
532.753,50.11667,     -10.40505
533.273,50.16833,     -10.40743
533.79,50.22000,     -10.40942
534.305,50.27167,     -10.41152
534.821,50.32333,     -10.41381
535.337,50.37500,     -10.41650
535.854,50.42667,     -10.41859
536.371,50.47833,     -10.42058
536.887,50.53000,     -10.42237
537.403,50.58167,     -10.42436
537.921,50.63333,     -10.42615
538.437,50.68500,     -10.42814
538.952,50.73667,     -10.43103
539.467,50.78833,     -10.43362
539.983,50.84000,     -10.43621
540.498,50.89167,     -10.43850
541.014,50.94333,     -10.44049
541.529,50.99500,     -10.44288
542.043,51.04667,     -10.44567
542.559,51.09833,     -10.44876
543.076,51.15000,     -10.45104
543.595,51.20167,     -10.45273
544.111,51.25333,     -10.45382
544.627,51.30500,     -10.45481
545.145,51.35667,     -10.45589
545.662,51.40833,     -10.45749
546.18,51.46000,     -10.45877
546.696,51.51167,     -10.46056
547.214,51.56333,     -10.46244
547.733,51.61500,     -10.46433
548.249,51.66667,     -10.46602
548.769,51.71833,     -10.46741
549.284,51.77000,     -10.46879
549.803,51.82167,     -10.46998
550.318,51.87333,     -10.47137
550.833,51.92500,     -10.47366
551.348,51.97667,     -10.47705
551.859,52.02833,     -10.48094
552.373,52.08000,     -10.48492
552.889,52.13167,     -10.48841
553.406,52.18333,     -10.49059
553.922,52.23500,     -10.49298
554.443,52.28667,     -10.49406
554.964,52.33833,     -10.49494
555.482,52.39000,     -10.49533
556.003,52.44167,     -10.49571
556.518,52.49333,     -10.49650
557.035,52.54500,     -10.49799
557.548,52.59667,     -10.49998
558.067,52.64833,     -10.50216
558.582,52.70000,     -10.50454
559.098,52.75167,     -10.50693
559.613,52.80333,     -10.50931
560.13,52.85500,     -10.51070
560.647,52.90667,     -10.51228
561.165,52.95833,     -10.51456
561.679,53.01000,     -10.51685
562.198,53.06167,     -10.51883
562.712,53.11333,     -10.52032
563.229,53.16500,     -10.52140
563.744,53.21667,     -10.52249
564.263,53.26833,     -10.52427
564.781,53.32000,     -10.52575
565.298,53.37167,     -10.52763
565.813,53.42333,     -10.52952
566.329,53.47500,     -10.53170
566.844,53.52667,     -10.53408
567.36,53.57833,     -10.53617
567.872,53.63000,     -10.53855
568.387,53.68167,     -10.54043
568.902,53.73333,     -10.54182
569.42,53.78500,     -10.54319
569.939,53.83667,     -10.54447
570.454,53.88833,     -10.54586
570.969,53.94000,     -10.54714
571.488,53.99167,     -10.54822
572.004,54.04333,     -10.54920
572.521,54.09500,     -10.54998
573.038,54.14667,     -10.55116
573.555,54.19833,     -10.55284
574.073,54.25000,     -10.55522
574.589,54.30167,     -10.55790
575.105,54.35333,     -10.56078
575.62,54.40500,     -10.56276
576.138,54.45667,     -10.56464
576.654,54.50833,     -10.56612
577.169,54.56000,     -10.56740
577.687,54.61167,     -10.56868
578.201,54.66333,     -10.56976
578.718,54.71500,     -10.57064
579.232,54.76667,     -10.57182
579.75,54.81833,     -10.57270
580.267,54.87000,     -10.57377
580.783,54.92167,     -10.57485
581.301,54.97333,     -10.57543
581.821,55.02500,     -10.57670
582.335,55.07667,     -10.57808
582.85,55.12833,     -10.57986
583.365,55.18000,     -10.58284
583.881,55.23167,     -10.58662
584.394,55.28333,     -10.58950
584.91,55.33500,     -10.59168
585.428,55.38667,     -10.59245
585.944,55.43833,     -10.59293
586.46,55.49000,     -10.59420
586.978,55.54167,     -10.59598
587.494,55.59333,     -10.59855
588.009,55.64500,     -10.60093
588.528,55.69667,     -10.60351
589.046,55.74833,     -10.60468
589.562,55.80000,     -10.60535
590.08,55.85167,     -10.60613
590.6,55.90333,     -10.60700
591.115,55.95500,     -10.60798
591.632,56.00667,     -10.60905
592.149,56.05833,     -10.61033
592.663,56.11000,     -10.61181
593.178,56.16167,     -10.61418
593.695,56.21333,     -10.61685
594.212,56.26500,     -10.61923
594.73,56.31667,     -10.62110
595.246,56.36833,     -10.62207
595.766,56.42000,     -10.62274
596.283,56.47167,     -10.62331
596.801,56.52333,     -10.62428
597.319,56.57500,     -10.62556
597.838,56.62667,     -10.62673
598.354,56.67833,     -10.62790
598.87,56.73000,     -10.62918
599.385,56.78167,     -10.63115
599.898,56.83333,     -10.63372
600.413,56.88500,     -10.63559
600.928,56.93667,     -10.63697
601.449,56.98833,     -10.63783
601.967,57.04000,     -10.63820
602.483,57.09167,     -10.63857
603.002,57.14333,     -10.63954
603.52,57.19500,     -10.64051
604.036,57.24667,     -10.64148
604.553,57.29833,     -10.64265
605.068,57.35000,     -10.64393
605.587,57.40167,     -10.64579
606.101,57.45333,     -10.64836
606.618,57.50500,     -10.65083
607.134,57.55667,     -10.65290
607.649,57.60833,     -10.65527
608.163,57.66000,     -10.65634
608.679,57.71167,     -10.65761
609.195,57.76333,     -10.65908
609.712,57.81500,     -10.66085
610.229,57.86667,     -10.66221
610.751,57.91833,     -10.66368
611.267,57.97000,     -10.66435
611.783,58.02167,     -10.66502
612.303,58.07333,     -10.66578
612.819,58.12500,     -10.66645
613.336,58.17667,     -10.66712
613.852,58.22833,     -10.66788
614.368,58.28000,     -10.66915
614.884,58.33167,     -10.67092
615.399,58.38333,     -10.67389
615.915,58.43500,     -10.67675
616.432,58.48667,     -10.67832
616.946,58.53833,     -10.67909
617.464,58.59000,     -10.67975
617.984,58.64167,     -10.68061
618.501,58.69333,     -10.68178
619.02,58.74500,     -10.68304
619.537,58.79667,     -10.68430
620.053,58.84833,     -10.68577
620.57,58.90000,     -10.68704
621.085,58.95167,     -10.68830
621.601,59.00333,     -10.68987
622.118,59.05500,     -10.69173
622.634,59.10667,     -10.69370
623.148,59.15833,     -10.69526
623.663,59.21000,     -10.69633
624.181,59.26167,     -10.69699
624.695,59.31333,     -10.69785
625.214,59.36500,     -10.69882
625.729,59.41667,     -10.70008
626.243,59.46833,     -10.70174
626.765,59.52000,     -10.70390
627.279,59.57167,     -10.70577
627.794,59.62333,     -10.70703
628.311,59.67500,     -10.70789
628.825,59.72667,     -10.70876
629.341,59.77833,     -10.70972
629.86,59.83000,     -10.71078
630.376,59.88167,     -10.71184
630.898,59.93333,     -10.71300
631.415,59.98500,     -10.71426
631.931,60.03667,     -10.71542
632.445,60.08833,     -10.71649
632.962,60.14000,     -10.71775
633.476,60.19167,     -10.71861
633.991,60.24333,     -10.71958
634.504,60.29500,     -10.72124
635.02,60.34667,     -10.72290
635.532,60.39833,     -10.72466
636.047,60.45000,     -10.72582
636.566,60.50167,     -10.72668
637.085,60.55333,     -10.72723
637.602,60.60500,     -10.72789
638.122,60.65667,     -10.72835
638.64,60.70833,     -10.72911
639.157,60.76000,     -10.73017
639.676,60.81167,     -10.73203
640.19,60.86333,     -10.73469
640.704,60.91500,     -10.73685
641.22,60.96667,     -10.73801
641.734,61.01833,     -10.73877
642.249,61.07000,     -10.73943
642.766,61.12167,     -10.74009
643.282,61.17333,     -10.74095
643.8,61.22500,     -10.74170
644.317,61.27667,     -10.74236
644.836,61.32833,     -10.74352
645.351,61.38000,     -10.74448
645.868,61.43167,     -10.74574
646.382,61.48333,     -10.74680
646.901,61.53500,     -10.74815
647.415,61.58667,     -10.74921
647.931,61.63833,     -10.75017
648.447,61.69000,     -10.75142
648.963,61.74167,     -10.75278
649.48,61.79333,     -10.75414
649.997,61.84500,     -10.75519
650.515,61.89667,     -10.75615
651.033,61.94833,     -10.75691
651.548,62.00000,     -10.75776
652.065,62.05167,     -10.75902
652.579,62.10333,     -10.75988
653.096,62.15500,     -10.76113
653.612,62.20667,     -10.76209
654.128,62.25833,     -10.76315
654.645,62.31000,     -10.76440
655.158,62.36167,     -10.76586
655.674,62.41333,     -10.76692
656.189,62.46500,     -10.76837
656.704,62.51667,     -10.76963
657.222,62.56833,     -10.77078
657.738,62.62000,     -10.77203
658.255,62.67167,     -10.77319
658.776,62.72333,     -10.77424
659.292,62.77500,     -10.77520
659.813,62.82667,     -10.77625
660.329,62.87833,     -10.77690
660.846,62.93000,     -10.77756
661.363,62.98167,     -10.77811
661.878,63.03333,     -10.77897
662.391,63.08500,     -10.78013
662.905,63.13667,     -10.78158
663.421,63.18833,     -10.78333
663.936,63.24000,     -10.78459
664.452,63.29167,     -10.78604
664.971,63.34333,     -10.78729
665.489,63.39500,     -10.78894
666.003,63.44667,     -10.79070
666.524,63.49833,     -10.79195
667.038,63.55000,     -10.79250
667.558,63.60167,     -10.79316
668.072,63.65333,     -10.79371
668.59,63.70500,     -10.79427
669.107,63.75667,     -10.79492
669.624,63.80833,     -10.79547
670.143,63.86000,     -10.79632
670.656,63.91167,     -10.79737
671.174,63.96333,     -10.79863
671.69,64.01500,     -10.79988
672.204,64.06667,     -10.80073
672.719,64.11833,     -10.80179
673.236,64.17000,     -10.80294
673.751,64.22167,     -10.80399
674.269,64.27333,     -10.80484
674.787,64.32500,     -10.80599
675.303,64.37667,     -10.80704
675.818,64.42833,     -10.80819
676.335,64.48000,     -10.80934
676.851,64.53167,     -10.81040
677.367,64.58333,     -10.81135
677.886,64.63500,     -10.81230
678.402,64.68667,     -10.81305
678.918,64.73833,     -10.81360
679.44,64.79000,     -10.81415
679.955,64.84167,     -10.81470
680.469,64.89333,     -10.81545
680.986,64.94500,     -10.81650
681.502,64.99667,     -10.81755
682.018,65.04833,     -10.81901
682.533,65.10000,     -10.82076
683.049,65.15167,     -10.82211
683.568,65.20333,     -10.82295
684.084,65.25500,     -10.82380
684.6,65.30667,     -10.82475
685.117,65.35833,     -10.82480
685.638,65.41000,     -10.82465
686.155,65.46167,     -10.82580
686.669,65.51333,     -10.82715
687.185,65.56500,     -10.82870
687.702,65.61667,     -10.83005
688.218,65.66833,     -10.83120
688.736,65.72000,     -10.83205
689.254,65.77167,     -10.83300
689.77,65.82333,     -10.83395
690.286,65.87500,     -10.83500
690.801,65.92667,     -10.83545
691.317,65.97833,     -10.83590
691.835,66.03000,     -10.83634
692.353,66.08167,     -10.83699
692.869,66.13333,     -10.83774
693.388,66.18500,     -10.83869
693.902,66.23667,     -10.83944
694.418,66.28833,     -10.84049
694.933,66.34000,     -10.84164
695.452,66.39167,     -10.84258
695.972,66.44333,     -10.84363
696.49,66.49500,     -10.84448
697.008,66.54667,     -10.84552
697.527,66.59833,     -10.84657
698.045,66.65000,     -10.84742
698.561,66.70167,     -10.84857
699.078,66.75333,     -10.84922
699.597,66.80500,     -10.85006
700.11,66.85667,     -10.85071
700.628,66.90833,     -10.85166
701.144,66.96000,     -10.85341
701.658,67.01167,     -10.85486
702.175,67.06333,     -10.85531
702.691,67.11500,     -10.85545
703.21,67.16667,     -10.85550
703.725,67.21833,     -10.85615
704.24,67.27000,     -10.85740
704.758,67.32167,     -10.85854
705.273,67.37333,     -10.86009
705.787,67.42500,     -10.86104
706.306,67.47667,     -10.86189
706.822,67.52833,     -10.86243
707.343,67.58000,     -10.86348
707.857,67.63167,     -10.86453
708.375,67.68333,     -10.86568
708.891,67.73500,     -10.86652
709.408,67.78667,     -10.86747
709.925,67.83833,     -10.86872
710.439,67.89000,     -10.86957
710.961,67.94167,     -10.87021
711.475,67.99333,     -10.87056
711.992,68.04500,     -10.87091
712.504,68.09667,     -10.87126
713.018,68.14833,     -10.87201
713.534,68.20000,     -10.87296
714.052,68.25167,     -10.87400
714.57,68.30333,     -10.87485
715.087,68.35500,     -10.87549
715.605,68.40667,     -10.87624
716.119,68.45833,     -10.87719
716.641,68.51000,     -10.87793
717.157,68.56167,     -10.87878
717.671,68.61333,     -10.87913
718.186,68.66500,     -10.87978
718.706,68.71667,     -10.88032
719.22,68.76833,     -10.88117
719.737,68.82000,     -10.88182
720.254,68.87167,     -10.88276
720.773,68.92333,     -10.88401
721.291,68.97500,     -10.88535
721.804,69.02667,     -10.88650
722.323,69.07833,     -10.88735
722.834,69.13000,     -10.88840
723.351,69.18167,     -10.88885
723.869,69.23333,     -10.88939
724.386,69.28500,     -10.89043
724.902,69.33667,     -10.89138
725.419,69.38833,     -10.89213
725.934,69.44000,     -10.89278
726.45,69.49167,     -10.89312
726.965,69.54333,     -10.89367
727.485,69.59500,     -10.89431
728.002,69.64667,     -10.89516
728.52,69.69833,     -10.89600
729.037,69.75000,     -10.89655
729.549,69.80167,     -10.89750
730.065,69.85333,     -10.89854
730.581,69.90500,     -10.89969
731.096,69.95667,     -10.90053
731.615,70.00833,     -10.90107
732.132,70.06000,     -10.90192
732.648,70.11167,     -10.90277
733.164,70.16333,     -10.90381
733.681,70.21500,     -10.90476
734.197,70.26667,     -10.90580
734.714,70.31833,     -10.90664
735.232,70.37000,     -10.90749
735.747,70.42167,     -10.90823
736.26,70.47333,     -10.90858
736.776,70.52500,     -10.90942
737.294,70.57667,     -10.91017
737.813,70.62833,     -10.91091
738.325,70.68000,     -10.91146
738.841,70.73167,     -10.91190
739.36,70.78333,     -10.91274
739.873,70.83500,     -10.91359
740.389,70.88667,     -10.91433
740.903,70.93833,     -10.91457
741.419,70.99000,     -10.91512
741.934,71.04167,     -10.91596
742.448,71.09333,     -10.91701
742.967,71.14500,     -10.91765
743.485,71.19667,     -10.91849
744.003,71.24833,     -10.91913
744.52,71.30000,     -10.92007
745.038,71.35167,     -10.92131
745.556,71.40333,     -10.92235
746.074,71.45500,     -10.92339
746.591,71.50667,     -10.92404
747.109,71.55833,     -10.92478
747.626,71.61000,     -10.92562
748.143,71.66167,     -10.92596
748.657,71.71333,     -10.92631
749.173,71.76500,     -10.92705
749.688,71.81667,     -10.92789
750.204,71.86833,     -10.92863
750.719,71.92000,     -10.92917
751.238,71.97167,     -10.93001
751.757,72.02333,     -10.93075
752.273,72.07500,     -10.93129
752.794,72.12667,     -10.93253
753.307,72.17833,     -10.93387
753.822,72.23000,     -10.93511
754.339,72.28167,     -10.93655
754.856,72.33333,     -10.93739
755.371,72.38500,     -10.93823
755.884,72.43667,     -10.93887
756.402,72.48833,     -10.93971
756.921,72.54000,     -10.94034
757.437,72.59167,     -10.94088
757.954,72.64333,     -10.94092
758.47,72.69500,     -10.94116
758.984,72.74667,     -10.94150
759.501,72.79833,     -10.94184
760.014,72.85000,     -10.94228
760.53,72.90167,     -10.94272
761.045,72.95333,     -10.94335
761.558,73.00500,     -10.94389
762.079,73.05667,     -10.94453
762.599,73.10833,     -10.94526
763.112,73.16000,     -10.94590
763.63,73.21167,     -10.94674
764.145,73.26333,     -10.94757
764.665,73.31500,     -10.94891
765.18,73.36667,     -10.95044
765.698,73.41833,     -10.95128
766.216,73.47000,     -10.95221
766.733,73.52167,     -10.95345
767.252,73.57333,     -10.95438
767.766,73.62500,     -10.95492
768.277,73.67667,     -10.95576
768.796,73.72833,     -10.95649
769.313,73.78000,     -10.95723
769.829,73.83167,     -10.95776
770.35,73.88333,     -10.95809
770.87,73.93500,     -10.95842
771.389,73.98667,     -10.95855
771.903,74.03833,     -10.95859
772.418,74.09000,     -10.95872
772.933,74.14167,     -10.95906
773.444,74.19333,     -10.95939
773.96,74.24500,     -10.95983
774.475,74.29667,     -10.96046
774.995,74.34833,     -10.96099
775.515,74.40000,     -10.96162
776.03,74.45167,     -10.96205
776.547,74.50333,     -10.96248
777.063,74.55500,     -10.96331
777.583,74.60667,     -10.96424
778.095,74.65833,     -10.96507
778.609,74.71000,     -10.96581
779.123,74.76167,     -10.96644
779.639,74.81333,     -10.96727
780.156,74.86500,     -10.96780
780.671,74.91667,     -10.96843
781.188,74.96833,     -10.96936
781.705,75.02000,     -10.97068
782.223,75.07167,     -10.97271
782.74,75.12333,     -10.97474
783.257,75.17500,     -10.97567
783.774,75.22667,     -10.97720
784.29,75.27833,     -10.97782
784.807,75.33000,     -10.97765
785.322,75.38167,     -10.97758
785.84,75.43333,     -10.97780
786.356,75.48500,     -10.97813
786.871,75.53667,     -10.97866
787.385,75.58833,     -10.97899
787.905,75.64000,     -10.97971
788.423,75.69167,     -10.98034
788.94,75.74333,     -10.98116
789.456,75.79500,     -10.98209
789.974,75.84667,     -10.98301
790.495,75.89833,     -10.98363
791.014,75.95000,     -10.98406
791.529,76.00167,     -10.98458
792.049,76.05333,     -10.98530
792.564,76.10500,     -10.98603
793.084,76.15667,     -10.98655
793.602,76.20833,     -10.98717
794.121,76.26000,     -10.98739
794.643,76.31167,     -10.98721
795.157,76.36333,     -10.98834
795.675,76.41500,     -10.99056
796.187,76.46667,     -10.99149
796.698,76.51833,     -10.99181
797.211,76.57000,     -10.99243
797.727,76.62167,     -10.99315
798.242,76.67333,     -10.99377
798.757,76.72500,     -10.99459
799.271,76.77667,     -10.99541
799.487,76.79833,     -10.99564