File: data-raw/TGA/I_TGA.csv
#EXPORTTYPE:                 ,DATA SINGLE
#FILE:                       ,I.ngb-st9
#FORMAT:                     ,NETZSCH5
#FTYPE:                      ,ANSI
#IDENTITY:                   ,Saras
#DECIMAL:                    ,POINT
#SEPARATOR:                  ,COMMA
#MTYPE:                      ,TG
#INSTRUMENT:                 ,NETZSCH TG 209F1 Libra
#PROJECT:                    ,IL
#DATE/TIME:                  ,17/03/2017 9:34:05 AM (UTC+11)
#CORR. FILE:                 ,
#TEMPCAL:                    ,TCALZERO.TCX
#LABORATORY:                 ,Capture Lab
#OPERATOR:                   ,NJN
#REMARK:                     ,Training run
#SAMPLE:                     ,I
#SAMPLE MASS /mg:            ,17.0964
#MATERIAL:                   ,KHCO3
#TYPE OF CRUCIBLE:           ,Al2O3
#SAMPLE CRUCIBLE MASS /mg:   ,311.1070
#REFERENCE CRUCIBLE MASS /mg:,
#M.RANGE /mg:                ,2000
#CORR. CODE:                 ,090
#RANGE:                      ,32°C/10.0(K/min)/800°C
#SEGMENT:                    ,S1/1
#SEG. 1:                     ,32°C/10.0(K/min)/800°C

##Temp./°C,Time/min,Mass loss/mg
 31.53400, 0.00000,-3.086157e-003
 31.53600, 0.05167,-4.113338e-003
 31.59800, 0.10333,-4.896080e-003
 31.91500, 0.15500,-4.695242e-003
 32.31700, 0.20667,-3.983057e-003
 32.68600, 0.25833,-4.927118e-003
 33.06000, 0.31000,-6.224929e-003
 33.48400, 0.36167,-7.420573e-003
 33.94800, 0.41333,-8.747910e-003
 34.44400, 0.46500,-1.028807e-002
 34.96900, 0.51667,-1.202506e-002
 35.51700, 0.56833,-1.392043e-002
 36.09000, 0.62000,-1.606312e-002
 36.68200, 0.67167,-1.824407e-002
 37.29300, 0.72333,-2.063764e-002
 37.92100, 0.77500,-2.419962e-002
 38.56200, 0.82667,-2.867230e-002
 39.21100, 0.87833,-3.276185e-002
 39.86000, 0.93000,-3.662596e-002
 40.51300, 0.98167,-4.045285e-002
 41.16400, 1.03333,-4.471718e-002
 41.82000, 1.08500,-4.936186e-002
 42.46500, 1.13667,-5.338194e-002
 43.10300, 1.18833,-5.786679e-002
 43.73200, 1.24000,-6.271608e-002
 44.35800, 1.29167,-6.806762e-002
 44.97200, 1.34333,-7.295909e-002
 45.57000, 1.39500,-7.820824e-002
 46.16700, 1.44667,-8.359104e-002
 46.74800, 1.49833,-8.923411e-002
 47.32300, 1.55000,-9.529388e-002
 47.88100, 1.60167,      -0.10082
 48.43500, 1.65333,      -0.10727
 48.97400, 1.70500,      -0.11380
 49.51400, 1.75667,      -0.12120
 50.04200, 1.80833,      -0.12768
 50.56100, 1.86000,      -0.13475
 51.07300, 1.91167,      -0.14183
 51.58300, 1.96333,      -0.14957
 52.09000, 2.01500,      -0.15771
 52.59000, 2.06667,      -0.16485
 53.09100, 2.11833,      -0.17274
 53.58900, 2.17000,      -0.18042
 54.08600, 2.22167,      -0.18922
 54.58300, 2.27333,      -0.19713
 55.07500, 2.32500,      -0.20634
 55.56900, 2.37667,      -0.21414
 56.06600, 2.42833,      -0.22350
 56.56400, 2.48000,      -0.23294
 57.06200, 2.53167,      -0.24150
 57.56400, 2.58333,      -0.25065
 58.06800, 2.63500,      -0.25974
 58.57000, 2.68667,      -0.26948
 59.07400, 2.73833,      -0.27853
 59.58100, 2.79000,      -0.28829
 60.08600, 2.84167,      -0.29875
 60.59800, 2.89333,      -0.30831
 61.11200, 2.94500,      -0.31808
 61.62500, 2.99667,      -0.32762
 62.14000, 3.04833,      -0.33798
 62.66000, 3.10000,      -0.34844
 63.17500, 3.15167,      -0.35899
 63.69300, 3.20333,      -0.36922
 64.21000, 3.25500,      -0.38006
 64.72900, 3.30667,      -0.39019
 65.25300, 3.35833,      -0.40114
 65.77500, 3.41000,      -0.41219
 66.29700, 3.46167,      -0.42249
 66.81900, 3.51333,      -0.43394
 67.34200, 3.56500,      -0.44435
 67.86700, 3.61667,      -0.45549
 68.38900, 3.66833,      -0.46609
 68.91100, 3.72000,      -0.47761
 69.43400, 3.77167,      -0.48851
 69.95700, 3.82333,      -0.50003
 70.47800, 3.87500,      -0.51183
 70.99800, 3.92667,      -0.52263
 71.51700, 3.97833,      -0.53404
 72.04000, 4.03000,      -0.54444
 72.55900, 4.08167,      -0.55563
 73.08300, 4.13333,      -0.56655
 73.60100, 4.18500,      -0.57785
 74.11900, 4.23667,      -0.58845
 74.63900, 4.28833,      -0.59946
 75.16000, 4.34000,      -0.61047
 75.68000, 4.39167,      -0.62086
 76.19900, 4.44333,      -0.63137
 76.71700, 4.49500,      -0.64156
 77.23300, 4.54667,      -0.65235
 77.75000, 4.59833,      -0.66234
 78.27200, 4.65000,      -0.67247
 78.78500, 4.70167,      -0.68243
 79.30400, 4.75333,      -0.69334
 79.82200, 4.80500,      -0.70366
 80.34000, 4.85667,      -0.71345
 80.85700, 4.90833,      -0.72384
 81.37200, 4.96000,      -0.73302
 81.88900, 5.01167,      -0.74303
 82.41000, 5.06333,      -0.75195
 82.92700, 5.11500,      -0.76154
 83.44200, 5.16667,      -0.77032
 83.95800, 5.21833,      -0.77962
 84.47400, 5.27000,      -0.78881
 84.99100, 5.32167,      -0.79711
 85.50900, 5.37333,      -0.80611
 86.02600, 5.42500,      -0.81441
 86.54300, 5.47667,      -0.82291
 87.06500, 5.52833,      -0.83052
 87.58200, 5.58000,      -0.83842
 88.10300, 5.63167,      -0.84582
 88.62100, 5.68333,      -0.85391
 89.14100, 5.73500,      -0.86181
 89.65900, 5.78667,      -0.86908
 90.17700, 5.83833,      -0.87648
 90.69400, 5.89000,      -0.88385
 91.21100, 5.94167,      -0.89125
 91.73000, 5.99333,      -0.89825
 92.24700, 6.04500,      -0.90554
 92.76600, 6.09667,      -0.91224
 93.28200, 6.14833,      -0.91903
 93.79800, 6.20000,      -0.92571
 94.31500, 6.25167,      -0.93149
 94.83200, 6.30333,      -0.93748
 95.35000, 6.35500,      -0.94319
 95.86400, 6.40667,      -0.94897
 96.38500, 6.45833,      -0.95437
 96.90000, 6.51000,      -0.95997
 97.41800, 6.56167,      -0.96525
 97.93400, 6.61333,      -0.97044
 98.45300, 6.66500,      -0.97594
 98.96800, 6.71667,      -0.98082
 99.48500, 6.76833,      -0.98611
100.003, 6.82000,      -0.99071
100.52, 6.87167,      -0.99572
101.035, 6.92333,      -1.00014
101.553, 6.97500,      -1.00445
102.072, 7.02667,      -1.00878
102.588, 7.07833,      -1.01328
103.106, 7.13000,      -1.01739
103.619, 7.18167,      -1.02129
104.136, 7.23333,      -1.02529
104.653, 7.28500,      -1.02900
105.168, 7.33667,      -1.03280
105.684, 7.38833,      -1.03670
106.201, 7.44000,      -1.04001
106.717, 7.49167,      -1.04331
107.231, 7.54333,      -1.04690
107.746, 7.59500,      -1.05040
108.26, 7.64667,      -1.05339
108.777, 7.69833,      -1.05639
109.292, 7.75000,      -1.05927
109.811, 7.80167,      -1.06198
110.323, 7.85333,      -1.06397
110.838, 7.90500,      -1.06676
111.354, 7.95667,      -1.06965
111.872, 8.00833,      -1.07235
112.389, 8.06000,      -1.07493
112.902, 8.11167,      -1.07722
113.42, 8.16333,      -1.07971
113.934, 8.21500,      -1.08118
114.452, 8.26667,      -1.08268
114.968, 8.31833,      -1.08436
115.483, 8.37000,      -1.08664
116.001, 8.42167,      -1.08882
116.514, 8.47333,      -1.09130
117.035, 8.52500,      -1.09349
117.55, 8.57667,      -1.09506
118.067, 8.62833,      -1.09613
118.582, 8.68000,      -1.09710
119.099, 8.73167,      -1.09818
119.614, 8.78333,      -1.09935
120.13, 8.83500,      -1.10082
120.647, 8.88667,      -1.10250
121.164, 8.93833,      -1.10406
121.68, 8.99000,      -1.10583
122.197, 9.04167,      -1.10720
122.714, 9.09333,      -1.10837
123.229, 9.14500,      -1.10963
123.748, 9.19667,      -1.11081
124.264, 9.24833,      -1.11177
124.778, 9.30000,      -1.11302
125.296, 9.35167,      -1.11419
125.81, 9.40333,      -1.11544
126.325, 9.45500,      -1.11640
126.842, 9.50667,      -1.11736
127.358, 9.55833,      -1.11832
127.873, 9.61000,      -1.11908
128.39, 9.66167,      -1.11994
128.907, 9.71333,      -1.12090
129.424, 9.76500,      -1.12196
129.94, 9.81667,      -1.12281
130.457, 9.86833,      -1.12377
130.977, 9.92000,      -1.12453
131.491, 9.97167,      -1.12548
132.004,10.02333,      -1.12652
132.523,10.07500,      -1.12768
133.04,10.12667,      -1.12893
133.555,10.17833,      -1.12988
134.073,10.23000,      -1.13103
134.587,10.28167,      -1.13217
135.108,10.33333,      -1.13343
135.625,10.38500,      -1.13458
136.145,10.43667,      -1.13553
136.662,10.48833,      -1.13647
137.182,10.54000,      -1.13723
137.7,10.59167,      -1.13787
138.218,10.64333,      -1.13851
138.735,10.69500,      -1.13935
139.25,10.74667,      -1.14028
139.768,10.79833,      -1.14133
140.284,10.85000,      -1.14227
140.802,10.90167,      -1.14311
141.315,10.95333,      -1.14414
141.83,11.00500,      -1.14508
142.343,11.05667,      -1.14642
142.863,11.10833,      -1.14756
143.382,11.16000,      -1.14871
143.898,11.21167,      -1.14964
144.415,11.26333,      -1.15078
144.932,11.31500,      -1.15212
145.446,11.36667,      -1.15325
145.966,11.41833,      -1.15459
146.481,11.47000,      -1.15602
147,11.52167,      -1.15746
147.516,11.57333,      -1.15900
148.031,11.62500,      -1.16133
148.547,11.67667,      -1.16336
149.065,11.72833,      -1.16549
149.581,11.78000,      -1.16713
150.099,11.83167,      -1.16846
150.615,11.88333,      -1.16980
151.134,11.93500,      -1.17093
151.649,11.98667,      -1.17275
152.164,12.03833,      -1.17469
152.681,12.09000,      -1.17652
153.199,12.14167,      -1.17825
153.717,12.19333,      -1.17968
154.234,12.24500,      -1.18091
154.753,12.29667,      -1.18234
155.269,12.34833,      -1.18417
155.786,12.40000,      -1.18610
156.302,12.45167,      -1.18853
156.821,12.50333,      -1.19046
157.334,12.55500,      -1.19188
157.852,12.60667,      -1.19311
158.369,12.65833,      -1.19474
158.886,12.71000,      -1.19666
159.396,12.76167,      -1.19868
159.914,12.81333,      -1.20122
160.433,12.86500,      -1.20315
160.948,12.91667,      -1.20507
161.464,12.96833,      -1.20690
161.981,13.02000,      -1.20903
162.499,13.07167,      -1.21116
163.012,13.12333,      -1.21308
163.53,13.17500,      -1.21471
164.044,13.22667,      -1.21703
164.561,13.27833,      -1.21946
165.078,13.33000,      -1.22149
165.597,13.38167,      -1.22392
166.112,13.43333,      -1.22584
166.63,13.48500,      -1.22807
167.145,13.53667,      -1.23029
167.663,13.58833,      -1.23252
168.178,13.64000,      -1.23464
168.696,13.69167,      -1.23647
169.209,13.74333,      -1.23890
169.726,13.79500,      -1.24142
170.244,13.84667,      -1.24435
170.757,13.89833,      -1.24677
171.275,13.95000,      -1.24891
171.794,14.00167,      -1.25093
172.311,14.05333,      -1.25296
172.829,14.10500,      -1.25529
173.35,14.15667,      -1.25762
173.864,14.20833,      -1.26014
174.384,14.26000,      -1.26227
174.898,14.31167,      -1.26549
175.414,14.36333,      -1.26761
175.933,14.41500,      -1.27025
176.449,14.46667,      -1.27297
176.965,14.51833,      -1.27580
177.48,14.57000,      -1.27883
177.996,14.62167,      -1.28125
178.514,14.67333,      -1.28398
179.033,14.72500,      -1.28652
179.55,14.77667,      -1.28945
180.067,14.82833,      -1.29267
180.583,14.88000,      -1.29620
181.102,14.93167,      -1.29933
181.617,14.98333,      -1.30246
182.136,15.03500,      -1.30549
182.653,15.08667,      -1.30812
183.167,15.13833,      -1.31075
183.688,15.19000,      -1.31428
184.203,15.24167,      -1.31791
184.719,15.29333,      -1.32164
185.237,15.34500,      -1.32557
185.753,15.39667,      -1.32960
186.267,15.44833,      -1.33343
186.784,15.50000,      -1.33676
187.297,15.55167,      -1.34099
187.815,15.60333,      -1.34583
188.333,15.65500,      -1.34937
188.852,15.70667,      -1.35270
189.366,15.75833,      -1.35593
189.883,15.81000,      -1.36017
190.397,15.86167,      -1.36480
190.915,15.91333,      -1.36884
191.428,15.96500,      -1.37347
191.946,16.01667,      -1.37791
192.46,16.06833,      -1.38275
192.978,16.12000,      -1.38729
193.497,16.17167,      -1.39203
194.017,16.22333,      -1.39637
194.53,16.27500,      -1.40111
195.044,16.32667,      -1.40674
195.566,16.37833,      -1.41239
196.082,16.43000,      -1.41743
196.596,16.48167,      -1.42257
197.116,16.53333,      -1.42811
197.633,16.58500,      -1.43346
198.154,16.63667,      -1.43890
198.669,16.68833,      -1.44434
199.189,16.74000,      -1.45029
199.705,16.79167,      -1.45633
200.225,16.84333,      -1.46228
200.739,16.89500,      -1.46822
201.253,16.94667,      -1.47386
201.774,16.99833,      -1.47982
202.287,17.05000,      -1.48556
202.808,17.10167,      -1.49201
203.325,17.15333,      -1.49796
203.842,17.20500,      -1.50410
204.358,17.25667,      -1.51075
204.875,17.30833,      -1.51719
205.392,17.36000,      -1.52464
205.908,17.41167,      -1.53129
206.423,17.46333,      -1.53853
206.941,17.51500,      -1.54468
207.456,17.56667,      -1.55203
207.974,17.61833,      -1.55958
208.488,17.67000,      -1.56712
209.004,17.72167,      -1.57547
209.52,17.77333,      -1.58292
210.035,17.82500,      -1.59077
210.551,17.87667,      -1.59822
211.068,17.92833,      -1.60627
211.586,17.98000,      -1.61402
212.104,18.03167,      -1.62176
212.617,18.08333,      -1.62961
213.135,18.13500,      -1.63806
213.652,18.18667,      -1.64631
214.167,18.23833,      -1.65436
214.685,18.29000,      -1.66291
215.203,18.34167,      -1.67116
215.722,18.39333,      -1.68041
216.237,18.44500,      -1.68906
216.755,18.49667,      -1.69821
217.272,18.54833,      -1.70646
217.79,18.60000,      -1.71551
218.307,18.65167,      -1.72436
218.824,18.70333,      -1.73261
219.342,18.75500,      -1.74206
219.859,18.80667,      -1.75091
220.373,18.85833,      -1.76096
220.889,18.91000,      -1.77021
221.407,18.96167,      -1.77976
221.92,19.01333,      -1.78861
222.433,19.06500,      -1.79866
222.954,19.11667,      -1.80891
223.466,19.16833,      -1.81816
223.986,19.22000,      -1.82831
224.499,19.27167,      -1.83796
225.015,19.32333,      -1.84771
225.533,19.37500,      -1.85727
226.051,19.42667,      -1.86722
226.568,19.47833,      -1.87687
227.088,19.53000,      -1.88752
227.605,19.58167,      -1.89797
228.119,19.63333,      -1.90822
228.636,19.68500,      -1.91907
229.153,19.73667,      -1.92933
229.669,19.78833,      -1.94078
230.185,19.84000,      -1.95173
230.701,19.89167,      -1.96368
231.216,19.94333,      -1.97443
231.737,19.99500,      -1.98658
232.25,20.04667,      -1.99864
232.764,20.09833,      -2.01009
233.283,20.15000,      -2.02244
233.798,20.20167,      -2.03419
234.314,20.25333,      -2.04694
234.831,20.30500,      -2.05930
235.35,20.35667,      -2.07285
235.867,20.40833,      -2.08590
236.384,20.46000,      -2.11325
236.899,20.51167,      -2.12290
237.416,20.56333,      -2.13356
237.933,20.61500,      -2.14601
238.45,20.66667,      -2.16696
238.965,20.71833,      -2.18041
239.482,20.77000,      -2.19096
239.997,20.82167,      -2.20452
240.513,20.87333,      -2.23097
241.029,20.92500,      -2.24222
241.546,20.97667,      -2.26637
242.062,21.02833,      -2.28263
242.58,21.08000,      -2.29808
243.099,21.13167,      -2.30913
243.616,21.18333,      -2.33408
244.131,21.23500,      -2.35153
244.649,21.28667,      -2.37099
245.168,21.33833,      -2.38954
245.682,21.39000,      -2.41029
246.2,21.44167,      -2.43054
246.717,21.49333,      -2.44930
247.235,21.54500,      -2.47015
247.756,21.59667,      -2.49070
248.271,21.64833,      -2.51315
248.786,21.70000,      -2.53410
249.302,21.75167,      -2.55725
249.819,21.80333,      -2.57911
250.333,21.85500,      -2.60316
250.851,21.90667,      -2.62741
251.366,21.95833,      -2.65036
251.882,22.01000,      -2.67631
252.398,22.06167,      -2.70127
252.917,22.11333,      -2.72912
253.435,22.16500,      -2.75517
253.948,22.21667,      -2.78212
254.465,22.26833,      -2.80797
254.981,22.32000,      -2.83563
255.501,22.37167,      -2.86468
256.016,22.42333,      -2.89083
256.534,22.47500,      -2.92208
257.048,22.52667,      -2.95233
257.562,22.57833,      -2.98538
258.078,22.63000,      -3.01473
258.596,22.68167,      -3.04709
259.111,22.73333,      -3.07834
259.632,22.78500,      -3.11159
260.148,22.83667,      -3.14574
260.667,22.88833,      -3.17909
261.18,22.94000,      -3.21584
261.699,22.99167,      -3.25029
262.215,23.04333,      -3.28754
262.73,23.09500,      -3.32269
263.248,23.14667,      -3.35975
263.762,23.19833,      -3.39630
264.282,23.25000,      -3.43665
264.797,23.30167,      -3.47670
265.312,23.35333,      -3.51495
265.831,23.40500,      -3.55670
266.348,23.45667,      -3.59635
266.864,23.50833,      -3.63910
267.381,23.56000,      -3.67945
267.896,23.61167,      -3.72340
268.414,23.66333,      -3.76545
268.932,23.71500,      -3.81070
269.453,23.76667,      -3.85605
269.965,23.81833,      -3.90020
270.485,23.87000,      -3.94815
270.998,23.92167,      -3.99249
271.516,23.97333,      -4.04004
272.031,24.02500,      -4.08549
272.548,24.07667,      -4.13494
273.061,24.12833,      -4.18219
273.577,24.18000,      -4.23334
274.092,24.23167,      -4.28559
274.606,24.28333,      -4.33324
275.122,24.33500,      -4.38429
275.639,24.38667,      -4.43273
276.156,24.43833,      -4.48508
276.671,24.49000,      -4.53493
277.186,24.54167,      -4.58758
277.701,24.59333,      -4.63723
278.221,24.64500,      -4.68987
278.737,24.69667,      -4.74312
279.253,24.74833,      -4.79357
279.77,24.80000,      -4.84712
280.288,24.85167,      -4.89866
280.803,24.90333,      -4.95311
281.317,24.95500,      -5.00356
281.833,25.00667,      -5.05690
282.348,25.05833,      -5.10645
282.868,25.11000,      -5.15920
283.383,25.16167,      -5.21184
283.9,25.21333,      -5.26019
284.417,25.26500,      -5.31533
284.932,25.31667,      -5.36468
285.445,25.36833,      -5.41803
285.992,25.42000,      -5.46867
286.507,25.47167,      -5.52251
287.019,25.52333,      -5.57326
287.529,25.57500,      -5.62621
288.036,25.62667,      -5.67885
288.545,25.67833,      -5.72780
289.058,25.73000,      -5.77984
289.572,25.78167,      -5.82879
290.087,25.83333,      -5.88013
290.601,25.88500,      -5.92797
291.117,25.93667,      -5.97982
291.632,25.98833,      -6.02826
292.149,26.04000,      -6.07820
292.666,26.09167,      -6.12865
293.182,26.14333,      -6.17589
293.699,26.19500,      -6.22583
294.217,26.24667,      -6.27297
294.732,26.29833,      -6.32362
295.252,26.35000,      -6.37056
295.768,26.40167,      -6.42030
296.287,26.45333,      -6.46734
296.805,26.50500,      -6.51638
297.321,26.55667,      -6.56542
297.838,26.60833,      -6.61217
298.353,26.66000,      -6.66161
298.87,26.71167,      -6.70705
299.383,26.76333,      -6.75619
299.902,26.81500,      -6.80253
300.419,26.86667,      -6.85057
300.935,26.91833,      -6.89591
301.454,26.97000,      -6.94475
301.969,27.02167,      -6.99309
302.488,27.07333,      -7.03863
303.005,27.12500,      -7.08767
303.523,27.17667,      -7.13391
304.038,27.22833,      -7.18265
304.552,27.28000,      -7.22829
305.072,27.33167,      -7.27733
305.589,27.38333,      -7.32297
306.106,27.43500,      -7.37171
306.623,27.48667,      -7.42115
307.137,27.53833,      -7.46769
307.657,27.59000,      -7.51713
308.174,27.64167,      -7.56367
308.691,27.69333,      -7.61441
309.205,27.74500,      -7.66205
309.725,27.79667,      -7.71249
310.242,27.84833,      -7.75983
310.759,27.90000,      -7.81107
311.274,27.95167,      -7.86271
311.791,28.00333,      -7.91195
312.312,28.05500,      -7.96499
312.825,28.10667,      -8.01483
313.344,28.15833,      -8.06757
313.859,28.21000,      -8.11801
314.378,28.26167,      -8.17215
314.895,28.31333,      -8.22259
315.413,28.36500,      -8.27713
315.929,28.41667,      -8.33257
316.446,28.46833,      -8.38401
316.964,28.52000,      -8.43915
317.478,28.57167,      -8.49199
317.995,28.62333,      -8.54673
318.512,28.67500,      -8.59877
319.028,28.72667,      -8.65411
319.546,28.77833,      -8.70625
320.065,28.83000,      -8.76179
320.58,28.88167,      -8.81623
321.094,28.93333,      -8.86687
321.612,28.98500,      -8.92011
322.133,29.03667,      -8.96825
322.652,29.08833,      -9.01979
323.165,29.14000,      -9.06793
323.681,29.19167,      -9.11907
324.196,29.24333,      -9.16851
324.708,29.29500,      -9.21365
325.222,29.34667,      -9.26109
325.737,29.39833,      -9.30533
326.255,29.45000,      -9.35087
326.772,29.50167,      -9.39231
327.287,29.55333,      -9.43575
327.802,29.60500,      -9.47639
328.316,29.65667,      -9.51923
328.831,29.70833,      -9.55777
329.351,29.76000,      -9.59670
329.867,29.81167,      -9.63434
330.386,29.86333,      -9.67038
330.9,29.91500,      -9.70822
331.414,29.96667,      -9.74226
331.934,30.01833,      -9.77720
332.448,30.07000,      -9.80964
332.966,30.12167,      -9.84318
333.481,30.17333,      -9.87442
333.997,30.22500,      -9.90585
334.521,30.27667,      -9.93579
335.036,30.32833,      -9.96373
335.552,30.38000,      -9.99287
336.066,30.43167,     -10.01931
336.577,30.48333,     -10.04705
337.095,30.53500,     -10.07169
337.609,30.58667,     -10.09863
338.122,30.63833,     -10.12317
338.642,30.69000,     -10.14890
339.158,30.74167,     -10.17354
339.676,30.79333,     -10.19488
340.191,30.84500,     -10.21862
340.71,30.89667,     -10.23955
341.228,30.94833,     -10.26149
341.747,31.00000,     -10.28163
342.262,31.05167,     -10.30367
342.779,31.10333,     -10.32330
343.293,31.15500,     -10.34344
343.81,31.20667,     -10.36388
344.323,31.25833,     -10.38222
344.839,31.31000,     -10.40065
345.357,31.36167,     -10.41779
345.871,31.41333,     -10.43643
346.386,31.46500,     -10.45296
346.905,31.51667,     -10.47030
347.419,31.56833,     -10.48084
347.936,31.62000,     -10.49318
348.454,31.67167,     -10.50641
348.969,31.72333,     -10.53165
349.486,31.77500,     -10.54168
350.003,31.82667,     -10.55262
350.521,31.87833,     -10.56496
351.039,31.93000,     -10.58289
351.553,31.98167,     -10.59933
352.071,32.03333,     -10.60916
352.589,32.08500,     -10.61990
353.105,32.13667,     -10.63134
353.619,32.18833,     -10.64297
354.137,32.24000,     -10.65501
354.656,32.29167,     -10.66594
355.175,32.34333,     -10.67747
355.692,32.39500,     -10.68821
356.205,32.44667,     -10.69995
356.724,32.49833,     -10.71038
357.239,32.55000,     -10.72152
357.753,32.60167,     -10.73245
358.268,32.65333,     -10.74199
358.787,32.70500,     -10.75242
359.304,32.75667,     -10.76195
359.82,32.80833,     -10.77189
360.337,32.86000,     -10.78122
360.851,32.91167,     -10.79086
361.364,32.96333,     -10.80059
361.882,33.01500,     -10.81043
362.397,33.06667,     -10.81986
362.911,33.11833,     -10.82859
363.431,33.17000,     -10.83723
363.946,33.22167,     -10.84566
364.464,33.27333,     -10.85439
364.98,33.32500,     -10.86232
365.498,33.37667,     -10.87046
366.015,33.42833,     -10.87809
366.531,33.48000,     -10.88562
367.046,33.53167,     -10.89386
367.562,33.58333,     -10.90229
368.076,33.63500,     -10.91112
368.591,33.68667,     -10.91885
369.107,33.73833,     -10.92698
369.623,33.79000,     -10.93422
370.142,33.84167,     -10.94184
370.659,33.89333,     -10.94908
371.172,33.94500,     -10.95691
371.689,33.99667,     -10.96474
372.204,34.04833,     -10.97237
372.721,34.10000,     -10.98020
373.237,34.15167,     -10.98713
373.753,34.20333,     -10.99436
374.272,34.25500,     -11.00079
374.788,34.30667,     -11.00792
375.305,34.35833,     -11.01535
375.826,34.41000,     -11.02308
376.339,34.46167,     -11.03101
376.857,34.51333,     -11.03824
377.374,34.56500,     -11.04557
377.889,34.61667,     -11.05250
378.403,34.66833,     -11.05993
378.922,34.72000,     -11.06676
379.434,34.77167,     -11.07419
379.955,34.82333,     -11.08131
380.471,34.87500,     -11.08874
380.989,34.92667,     -11.09567
381.503,34.97833,     -11.10210
382.02,35.03000,     -11.10903
382.535,35.08167,     -11.11585
383.049,35.13333,     -11.12318
383.565,35.18500,     -11.12931
384.081,35.23667,     -11.13613
384.597,35.28833,     -11.14266
385.112,35.34000,     -11.14959
385.629,35.39167,     -11.15741
386.142,35.44333,     -11.16414
386.661,35.49500,     -11.17087
387.18,35.54667,     -11.17659
387.698,35.59833,     -11.18252
388.215,35.65000,     -11.18804
388.731,35.70167,     -11.19487
389.249,35.75333,     -11.20249
389.765,35.80500,     -11.20972
390.282,35.85667,     -11.21634
390.798,35.90833,     -11.22277
391.314,35.96000,     -11.22949
391.833,36.01167,     -11.23561
392.347,36.06333,     -11.24194
392.86,36.11500,     -11.24846
393.375,36.16667,     -11.25579
393.888,36.21833,     -11.26261
394.403,36.27000,     -11.26964
394.917,36.32167,     -11.27596
395.431,36.37333,     -11.28178
395.951,36.42500,     -11.28770
396.47,36.47667,     -11.29282
396.987,36.52833,     -11.29914
397.506,36.58000,     -11.30516
398.02,36.63167,     -11.31219
398.537,36.68333,     -11.31861
399.052,36.73500,     -11.32503
399.57,36.78667,     -11.33135
400.087,36.83833,     -11.33677
400.603,36.89000,     -11.34229
401.119,36.94167,     -11.34811
401.638,36.99333,     -11.35483
402.148,37.04500,     -11.36085
402.666,37.09667,     -11.36697
403.181,37.14833,     -11.37359
403.697,37.20000,     -11.38031
404.212,37.25167,     -11.38663
404.728,37.30333,     -11.39235
405.245,37.35500,     -11.39787
405.764,37.40667,     -11.40299
406.282,37.45833,     -11.40890
406.797,37.51000,     -11.41522
407.313,37.56167,     -11.42164
407.832,37.61333,     -11.42786
408.344,37.66500,     -11.43348
408.862,37.71667,     -11.43940
409.381,37.76833,     -11.44542
409.895,37.82000,     -11.45203
410.414,37.87167,     -11.45755
410.927,37.92333,     -11.46337
411.443,37.97500,     -11.46859
411.96,38.02667,     -11.47441
412.474,38.07833,     -11.48033
412.989,38.13000,     -11.48634
413.506,38.18167,     -11.49276
414.02,38.23333,     -11.49848
414.539,38.28500,     -11.50439
415.057,38.33667,     -11.50981
415.573,38.38833,     -11.51573
416.089,38.44000,     -11.52134
416.608,38.49167,     -11.52696
417.123,38.54333,     -11.53258
417.637,38.59500,     -11.53829
418.155,38.64667,     -11.54381
418.669,38.69833,     -11.54883
419.188,38.75000,     -11.55414
419.707,38.80167,     -11.55955
420.227,38.85333,     -11.56517
420.744,38.90500,     -11.57058
421.261,38.95667,     -11.57590
421.778,39.00833,     -11.58111
422.289,39.06000,     -11.58603
422.806,39.11167,     -11.59145
423.322,39.16333,     -11.59666
423.838,39.21500,     -11.60248
424.353,39.26667,     -11.60770
424.869,39.31833,     -11.61361
425.383,39.37000,     -11.61883
425.901,39.42167,     -11.62504
426.419,39.47333,     -11.63055
426.937,39.52500,     -11.63536
427.454,39.57667,     -11.64048
427.97,39.62833,     -11.64559
428.487,39.68000,     -11.65110
429.001,39.73167,     -11.65572
429.517,39.78333,     -11.65983
430.034,39.83500,     -11.66505
430.551,39.88667,     -11.67166
431.065,39.93833,     -11.67677
431.58,39.99000,     -11.68109
432.098,40.04167,     -11.68620
432.615,40.09333,     -11.69111
433.129,40.14500,     -11.69672
433.646,40.19667,     -11.70184
434.161,40.24833,     -11.70725
434.677,40.30000,     -11.71206
435.196,40.35167,     -11.71717
435.712,40.40333,     -11.72228
436.227,40.45500,     -11.72750
436.743,40.50667,     -11.73241
437.259,40.55833,     -11.73712
437.777,40.61000,     -11.74203
438.294,40.66167,     -11.74694
438.81,40.71333,     -11.75155
439.323,40.76500,     -11.75627
439.842,40.81667,     -11.76127
440.358,40.86833,     -11.76599
440.875,40.92000,     -11.77070
441.392,40.97167,     -11.77561
441.909,41.02333,     -11.77992
442.42,41.07500,     -11.78483
442.939,41.12667,     -11.78904
443.455,41.17833,     -11.79345
443.972,41.23000,     -11.79796
444.489,41.28167,     -11.80257
445.004,41.33333,     -11.80728
445.522,41.38500,     -11.81179
446.037,41.43667,     -11.81650
446.554,41.48833,     -11.82101
447.071,41.54000,     -11.82562
447.589,41.59167,     -11.83002
448.101,41.64333,     -11.83494
448.618,41.69500,     -11.83954
449.136,41.74667,     -11.84395
449.651,41.79833,     -11.84806
450.164,41.85000,     -11.85257
450.683,41.90167,     -11.85678
451.2,41.95333,     -11.86079
451.717,42.00500,     -11.86519
452.23,42.05667,     -11.86910
452.748,42.10833,     -11.87341
453.264,42.16000,     -11.87722
453.782,42.21167,     -11.88163
454.295,42.26333,     -11.88563
454.811,42.31500,     -11.88974
455.327,42.36667,     -11.89405
455.841,42.41833,     -11.89796
456.357,42.47000,     -11.90186
456.873,42.52167,     -11.90557
457.393,42.57333,     -11.90917
457.912,42.62500,     -11.91338
458.427,42.67667,     -11.91699
458.945,42.72833,     -11.92069
459.462,42.78000,     -11.92470
459.979,42.83167,     -11.92871
460.493,42.88333,     -11.93302
461.008,42.93500,     -11.93752
461.522,42.98667,     -11.94123
462.038,43.03833,     -11.94513
462.554,43.09000,     -11.94834
463.072,43.14167,     -11.95124
463.586,43.19333,     -11.95405
464.102,43.24500,     -11.95946
464.618,43.29667,     -11.96336
465.135,43.34833,     -11.96676
465.651,43.40000,     -11.97007
466.168,43.45167,     -11.97347
466.685,43.50333,     -11.97738
467.199,43.55500,     -11.98098
467.718,43.60667,     -11.98469
468.233,43.65833,     -11.98829
468.75,43.71000,     -11.99159
469.266,43.76167,     -11.99510
469.784,43.81333,     -11.99820
470.302,43.86500,     -12.00120
470.823,43.91667,     -12.00400
471.339,43.96833,     -12.00741
471.857,44.02000,     -12.01041
472.375,44.07167,     -12.01392
472.892,44.12333,     -12.01742
473.407,44.17500,     -12.02052
473.923,44.22667,     -12.02413
474.437,44.27833,     -12.02733
474.952,44.33000,     -12.03024
475.469,44.38167,     -12.03284
475.982,44.43333,     -12.03624
476.498,44.48500,     -12.03974
477.015,44.53667,     -12.04334
477.531,44.58833,     -12.04655
478.045,44.64000,     -12.04995
478.56,44.69167,     -12.05335
479.074,44.74333,     -12.05666
479.589,44.79500,     -12.06016
480.11,44.84667,     -12.06295
480.625,44.89833,     -12.06616
481.141,44.95000,     -12.06926
481.656,45.00167,     -12.07276
482.173,45.05333,     -12.07646
482.691,45.10500,     -12.07896
483.208,45.15667,     -12.08216
483.723,45.20833,     -12.08516
484.238,45.26000,     -12.08866
484.754,45.31167,     -12.09146
485.268,45.36333,     -12.09377
485.787,45.41500,     -12.09616
486.305,45.46667,     -12.09826
486.82,45.51833,     -12.10046
487.336,45.57000,     -12.10266
487.853,45.62167,     -12.10586
488.369,45.67333,     -12.10896
488.887,45.72500,     -12.11176
489.401,45.77667,     -12.11456
489.919,45.82833,     -12.11746
490.441,45.88000,     -12.11995
490.955,45.93167,     -12.12235
491.475,45.98333,     -12.12435
491.991,46.03500,     -12.12715
492.507,46.08667,     -12.12995
493.023,46.13833,     -12.13245
493.539,46.19000,     -12.13435
494.055,46.24167,     -12.13675
494.568,46.29333,     -12.13955
495.081,46.34500,     -12.14235
495.597,46.39667,     -12.14535
496.111,46.44833,     -12.14824
496.628,46.50000,     -12.15074
497.144,46.55167,     -12.15344
497.658,46.60333,     -12.15594
498.174,46.65500,     -12.15883
498.69,46.70667,     -12.16233
499.203,46.75833,     -12.16583
499.719,46.81000,     -12.16862
500.237,46.86167,     -12.17102
500.75,46.91333,     -12.17342
501.269,46.96500,     -12.17571
501.789,47.01667,     -12.17781
502.307,47.06833,     -12.17990
502.823,47.12000,     -12.18210
503.341,47.17167,     -12.18389
503.857,47.22333,     -12.18589
504.373,47.27500,     -12.18799
504.892,47.32667,     -12.19048
505.406,47.37833,     -12.19298
505.922,47.43000,     -12.19538
506.438,47.48167,     -12.19817
506.957,47.53333,     -12.20046
507.474,47.58500,     -12.20256
507.989,47.63667,     -12.20456
508.505,47.68833,     -12.20715
509.022,47.74000,     -12.20925
509.538,47.79167,     -12.21094
510.052,47.84333,     -12.21234
510.568,47.89500,     -12.21444
511.082,47.94667,     -12.21733
511.6,47.99833,     -12.21963
512.116,48.05000,     -12.22222
512.63,48.10167,     -12.22452
513.146,48.15333,     -12.22671
513.661,48.20500,     -12.22881
514.18,48.25667,     -12.23110
514.696,48.30833,     -12.23359
515.211,48.36000,     -12.23579
515.727,48.41167,     -12.23768
516.247,48.46333,     -12.24007
516.761,48.51500,     -12.24267
517.279,48.56667,     -12.24517
517.795,48.61833,     -12.24776
518.312,48.67000,     -12.24975
518.828,48.72167,     -12.25185
519.343,48.77333,     -12.25424
519.862,48.82500,     -12.25563
520.379,48.87667,     -12.25703
520.893,48.92833,     -12.25842
521.412,48.98000,     -12.26021
521.928,49.03167,     -12.26221
522.446,49.08333,     -12.26490
522.964,49.13500,     -12.26679
523.48,49.18667,     -12.26878
523.999,49.23833,     -12.27097
524.512,49.29000,     -12.27307
525.027,49.34167,     -12.27527
525.542,49.39333,     -12.27736
526.058,49.44500,     -12.27925
526.572,49.49667,     -12.28125
527.091,49.54833,     -12.28314
527.605,49.60000,     -12.28533
528.122,49.65167,     -12.28762
528.642,49.70333,     -12.28971
529.156,49.75500,     -12.29170
529.677,49.80667,     -12.29329
530.196,49.85833,     -12.29438
530.713,49.91000,     -12.29577
531.228,49.96167,     -12.29767
531.743,50.01333,     -12.30016
532.256,50.06500,     -12.30235
532.771,50.11667,     -12.30474
533.289,50.16833,     -12.30633
533.808,50.22000,     -12.30772
534.325,50.27167,     -12.30931
534.844,50.32333,     -12.31070
535.362,50.37500,     -12.31209
535.878,50.42667,     -12.31308
536.394,50.47833,     -12.31417
536.907,50.53000,     -12.31607
537.425,50.58167,     -12.31826
537.94,50.63333,     -12.32075
538.457,50.68500,     -12.32303
538.971,50.73667,     -12.32533
539.488,50.78833,     -12.32732
540.003,50.84000,     -12.32970
540.521,50.89167,     -12.33169
541.036,50.94333,     -12.33338
541.551,50.99500,     -12.33427
542.068,51.04667,     -12.33546
542.585,51.09833,     -12.33715
543.097,51.15000,     -12.33854
543.614,51.20167,     -12.34003
544.129,51.25333,     -12.34222
544.647,51.30500,     -12.34470
545.166,51.35667,     -12.34699
545.682,51.40833,     -12.34888
546.197,51.46000,     -12.34997
546.714,51.51167,     -12.35096
547.228,51.56333,     -12.35225
547.744,51.61500,     -12.35353
548.263,51.66667,     -12.35502
548.78,51.71833,     -12.35671
549.294,51.77000,     -12.35939
549.811,51.82167,     -12.36218
550.324,51.87333,     -12.36457
550.842,51.92500,     -12.36606
551.358,51.97667,     -12.36724
551.874,52.02833,     -12.36833
552.394,52.08000,     -12.36961
552.912,52.13167,     -12.37100
553.429,52.18333,     -12.37238
553.949,52.23500,     -12.37417
554.472,52.28667,     -12.37525
554.989,52.33833,     -12.37784
555.507,52.39000,     -12.37982
556.023,52.44167,     -12.38161
556.54,52.49333,     -12.38270
557.051,52.54500,     -12.38399
557.569,52.59667,     -12.38577
558.086,52.64833,     -12.38685
558.602,52.70000,     -12.38854
559.118,52.75167,     -12.39012
559.633,52.80333,     -12.39181
560.147,52.85500,     -12.39330
560.668,52.90667,     -12.39478
561.183,52.95833,     -12.39506
561.697,53.01000,     -12.39685
562.212,53.06167,     -12.39943
562.73,53.11333,     -12.40141
563.249,53.16500,     -12.40320
563.764,53.21667,     -12.40448
564.282,53.26833,     -12.40586
564.798,53.32000,     -12.40685
565.313,53.37167,     -12.40853
565.831,53.42333,     -12.40961
566.348,53.47500,     -12.41109
566.867,53.52667,     -12.41348
567.382,53.57833,     -12.41586
567.895,53.63000,     -12.41805
568.412,53.68167,     -12.42003
568.925,53.73333,     -12.42221
569.439,53.78500,     -12.42409
569.956,53.83667,     -12.42577
570.472,53.88833,     -12.42705
570.987,53.94000,     -12.42823
571.505,53.99167,     -12.42942
572.022,54.04333,     -12.43009
572.538,54.09500,     -12.43098
573.056,54.14667,     -12.43205
573.572,54.19833,     -12.43314
574.089,54.25000,     -12.43412
574.606,54.30167,     -12.43560
575.123,54.35333,     -12.43698
575.643,54.40500,     -12.43815
576.161,54.45667,     -12.43923
576.676,54.50833,     -12.44021
577.193,54.56000,     -12.44149
577.707,54.61167,     -12.44278
578.222,54.66333,     -12.44516
578.733,54.71500,     -12.44844
579.247,54.76667,     -12.45182
579.764,54.81833,     -12.45380
580.282,54.87000,     -12.45467
580.8,54.92167,     -12.45515
581.32,54.97333,     -12.45582
581.837,55.02500,     -12.45690
582.353,55.07667,     -12.45818
582.869,55.12833,     -12.45996
583.386,55.18000,     -12.46244
583.902,55.23167,     -12.46551
584.418,55.28333,     -12.46779
584.936,55.33500,     -12.46857
585.453,55.38667,     -12.46854
585.969,55.43833,     -12.46932
586.49,55.49000,     -12.47069
587.005,55.54167,     -12.47197
587.523,55.59333,     -12.47284
588.044,55.64500,     -12.47302
588.561,55.69667,     -12.47339
589.076,55.74833,     -12.47477
589.594,55.80000,     -12.47715
590.105,55.85167,     -12.48043
590.62,55.90333,     -12.48330
591.138,55.95500,     -12.48528
591.654,56.00667,     -12.48585
592.169,56.05833,     -12.48642
592.688,56.11000,     -12.48720
593.206,56.16167,     -12.48797
593.721,56.21333,     -12.48904
594.236,56.26500,     -12.49132
594.753,56.31667,     -12.49509
595.272,56.36833,     -12.49756
595.788,56.42000,     -12.49854
596.305,56.47167,     -12.49901
596.822,56.52333,     -12.49988
597.342,56.57500,     -12.50095
597.86,56.62667,     -12.50192
598.378,56.67833,     -12.50230
598.895,56.73000,     -12.50257
599.415,56.78167,     -12.50324
599.933,56.83333,     -12.50441
600.448,56.88500,     -12.50568
600.962,56.93667,     -12.50666
601.479,56.98833,     -12.50773
601.993,57.04000,     -12.50900
602.509,57.09167,     -12.51047
603.024,57.14333,     -12.51324
603.541,57.19500,     -12.51551
604.053,57.24667,     -12.51739
604.572,57.29833,     -12.51925
605.085,57.35000,     -12.52022
605.601,57.40167,     -12.52089
606.117,57.45333,     -12.52106
606.632,57.50500,     -12.52183
607.149,57.55667,     -12.52360
607.666,57.60833,     -12.52587
608.18,57.66000,     -12.52844
608.696,57.71167,     -12.53141
609.215,57.76333,     -12.53367
609.737,57.81500,     -12.53394
610.256,57.86667,     -12.53340
610.771,57.91833,     -12.53307
611.29,57.97000,     -12.53294
611.804,58.02167,     -12.53301
612.318,58.07333,     -12.53368
612.833,58.12500,     -12.53485
613.343,58.17667,     -12.53612
613.859,58.22833,     -12.53729
614.376,58.28000,     -12.53865
614.891,58.33167,     -12.54012
615.409,58.38333,     -12.54238
615.923,58.43500,     -12.54595
616.445,58.48667,     -12.54931
616.963,58.53833,     -12.55048
617.479,58.59000,     -12.55094
617.994,58.64167,     -12.55171
618.514,58.69333,     -12.55187
619.029,58.74500,     -12.55294
619.545,58.79667,     -12.55491
620.059,58.84833,     -12.55597
620.576,58.90000,     -12.55754
621.094,58.95167,     -12.55890
621.614,59.00333,     -12.55956
622.132,59.05500,     -12.56063
622.644,59.10667,     -12.56180
623.158,59.15833,     -12.56296
623.674,59.21000,     -12.56403
624.19,59.26167,     -12.56609
624.708,59.31333,     -12.56725
625.224,59.36500,     -12.56781
625.74,59.41667,     -12.56848
626.257,59.46833,     -12.56964
626.771,59.52000,     -12.57061
627.287,59.57167,     -12.57197
627.805,59.62333,     -12.57393
628.32,59.67500,     -12.57609
628.837,59.72667,     -12.57715
629.355,59.77833,     -12.57742
629.87,59.83000,     -12.57738
630.388,59.88167,     -12.57774
630.903,59.93333,     -12.57850
631.419,59.98500,     -12.57997
631.934,60.03667,     -12.58183
632.452,60.08833,     -12.58309
632.965,60.14000,     -12.58485
633.482,60.19167,     -12.58681
634,60.24333,     -12.58827
634.516,60.29500,     -12.58913
635.036,60.34667,     -12.58989
635.552,60.39833,     -12.59105
636.069,60.45000,     -12.59211
636.586,60.50167,     -12.59327
637.099,60.55333,     -12.59414
637.615,60.60500,     -12.59529
638.132,60.65667,     -12.59595
638.649,60.70833,     -12.59681
639.168,60.76000,     -12.59787
639.682,60.81167,     -12.59913
640.197,60.86333,     -12.60039
640.715,60.91500,     -12.60145
641.229,60.96667,     -12.60261
641.743,61.01833,     -12.60367
642.258,61.07000,     -12.60493
642.775,61.12167,     -12.60619
643.29,61.17333,     -12.60725
643.807,61.22500,     -12.60840
644.326,61.27667,     -12.60936
644.84,61.32833,     -12.61052
645.356,61.38000,     -12.61138
645.876,61.43167,     -12.61233
646.391,61.48333,     -12.61309
646.908,61.53500,     -12.61405
647.425,61.58667,     -12.61511
647.941,61.63833,     -12.61616
648.458,61.69000,     -12.61712
648.972,61.74167,     -12.61808
649.491,61.79333,     -12.61954
650.005,61.84500,     -12.62059
650.525,61.89667,     -12.62165
651.038,61.94833,     -12.62291
651.555,62.00000,     -12.62466
652.07,62.05167,     -12.62672
652.587,62.10333,     -12.62908
653.101,62.15500,     -12.63053
653.616,62.20667,     -12.63139
654.134,62.25833,     -12.63205
654.651,62.31000,     -12.63260
655.166,62.36167,     -12.63316
655.681,62.41333,     -12.63371
656.198,62.46500,     -12.63487
656.715,62.51667,     -12.63592
657.234,62.56833,     -12.63778
657.746,62.62000,     -12.63953
658.265,62.67167,     -12.64099
658.779,62.72333,     -12.64224
659.296,62.77500,     -12.64300
659.815,62.82667,     -12.64405
660.331,62.87833,     -12.64571
660.847,62.93000,     -12.64666
661.364,62.98167,     -12.64661
661.882,63.03333,     -12.64737
662.398,63.08500,     -12.64912
662.913,63.13667,     -12.65008
663.432,63.18833,     -12.65063
663.95,63.24000,     -12.65218
664.463,63.29167,     -12.65314
664.978,63.34333,     -12.65399
665.496,63.39500,     -12.65454
666.013,63.44667,     -12.65510
666.526,63.49833,     -12.65555
667.043,63.55000,     -12.65601
667.563,63.60167,     -12.65676
668.078,63.65333,     -12.65801
668.596,63.70500,     -12.65936
669.112,63.75667,     -12.66091
669.631,63.80833,     -12.66287
670.144,63.86000,     -12.66542
670.659,63.91167,     -12.66758
671.175,63.96333,     -12.66973
671.691,64.01500,     -12.67108
672.21,64.06667,     -12.67193
672.725,64.11833,     -12.67278
673.244,64.17000,     -12.67363
673.761,64.22167,     -12.67458
674.279,64.27333,     -12.67524
674.794,64.32500,     -12.67589
675.308,64.37667,     -12.67664
675.826,64.42833,     -12.67749
676.342,64.48000,     -12.67894
676.861,64.53167,     -12.68059
677.379,64.58333,     -12.68194
677.894,64.63500,     -12.68300
678.409,64.68667,     -12.68405
678.926,64.73833,     -12.68450
679.446,64.79000,     -12.68495
679.965,64.84167,     -12.68560
680.477,64.89333,     -12.68655
680.993,64.94500,     -12.68750
681.51,64.99667,     -12.68875
682.02,65.04833,     -12.69001
682.537,65.10000,     -12.69096
683.05,65.15167,     -12.69191
683.57,65.20333,     -12.69286
684.085,65.25500,     -12.69411
684.603,65.30667,     -12.69505
685.12,65.35833,     -12.69580
685.636,65.41000,     -12.69645
686.155,65.46167,     -12.69740
686.668,65.51333,     -12.69836
687.187,65.56500,     -12.69960
687.7,65.61667,     -12.70096
688.215,65.66833,     -12.70220
688.733,65.72000,     -12.70335
689.25,65.77167,     -12.70440
689.767,65.82333,     -12.70525
690.28,65.87500,     -12.70620
690.798,65.92667,     -12.70745
691.316,65.97833,     -12.70860
691.834,66.03000,     -12.70974
692.353,66.08167,     -12.71059
692.869,66.13333,     -12.71154
693.385,66.18500,     -12.71319
693.907,66.23667,     -12.71473
694.422,66.28833,     -12.71668
694.938,66.34000,     -12.71853
695.452,66.39167,     -12.71958
695.971,66.44333,     -12.72023
696.487,66.49500,     -12.72088
697.003,66.54667,     -12.72163
697.517,66.59833,     -12.72258
698.035,66.65000,     -12.72343
698.555,66.70167,     -12.72417
699.068,66.75333,     -12.72472
699.586,66.80500,     -12.72547
700.101,66.85667,     -12.72682
700.618,66.90833,     -12.72836
701.132,66.96000,     -12.73001
701.65,67.01167,     -12.73146
702.168,67.06333,     -12.73231
702.686,67.11500,     -12.73265
703.207,67.16667,     -12.73300
703.725,67.21833,     -12.73345
704.243,67.27000,     -12.73409
704.758,67.32167,     -12.73464
705.272,67.37333,     -12.73599
705.787,67.42500,     -12.73714
706.305,67.47667,     -12.73819
706.818,67.52833,     -12.73884
707.336,67.58000,     -12.73968
707.853,67.63167,     -12.74073
708.369,67.68333,     -12.74208
708.886,67.73500,     -12.74433
709.402,67.78667,     -12.74527
709.923,67.83833,     -12.74712
710.44,67.89000,     -12.74797
710.952,67.94167,     -12.74972
711.467,67.99333,     -12.75157
711.986,68.04500,     -12.75381
712.5,68.09667,     -12.75316
713.014,68.14833,     -12.75471
713.529,68.20000,     -12.75496
714.047,68.25167,     -12.75540
714.562,68.30333,     -12.75615
715.077,68.35500,     -12.75700
715.593,68.40667,     -12.75775
716.113,68.45833,     -12.75869
716.627,68.51000,     -12.75954
717.146,68.56167,     -12.75998
717.662,68.61333,     -12.76083
718.181,68.66500,     -12.76158
718.696,68.71667,     -12.76193
719.212,68.76833,     -12.76257
719.727,68.82000,     -12.76352
720.244,68.87167,     -12.76547
720.758,68.92333,     -12.76732
721.274,68.97500,     -12.76966
721.792,69.02667,     -12.77181
722.308,69.07833,     -12.77245
722.826,69.13000,     -12.77310
723.344,69.18167,     -12.77344
723.861,69.23333,     -12.77419
724.376,69.28500,     -12.77524
724.888,69.33667,     -12.77759
725.406,69.38833,     -12.78003
725.924,69.44000,     -12.78218
726.441,69.49167,     -12.78342
726.957,69.54333,     -12.78377
727.478,69.59500,     -12.78391
727.994,69.64667,     -12.78456
728.511,69.69833,     -12.78530
729.023,69.75000,     -12.78595
729.543,69.80167,     -12.78710
730.055,69.85333,     -12.78784
730.569,69.90500,     -12.78799
731.088,69.95667,     -12.78814
731.606,70.00833,     -12.78938
732.118,70.06000,     -12.79023
732.636,70.11167,     -12.79157
733.154,70.16333,     -12.79351
733.667,70.21500,     -12.79476
734.183,70.26667,     -12.79531
734.702,70.31833,     -12.79575
735.219,70.37000,     -12.79679
735.736,70.42167,     -12.79814
736.252,70.47333,     -12.79898
736.774,70.52500,     -12.79952
737.29,70.57667,     -12.79987
737.805,70.62833,     -12.80031
738.327,70.68000,     -12.80105
738.84,70.73167,     -12.80270
739.354,70.78333,     -12.80465
739.869,70.83500,     -12.80719
740.389,70.88667,     -12.80893
740.904,70.93833,     -12.81027
741.422,70.99000,     -12.81142
741.935,71.04167,     -12.81206
742.456,71.09333,     -12.81270
742.972,71.14500,     -12.81304
743.49,71.19667,     -12.81329
744.007,71.24833,     -12.81373
744.523,71.30000,     -12.81407
745.038,71.35167,     -12.81462
745.555,71.40333,     -12.81596
746.069,71.45500,     -12.81680
746.583,71.50667,     -12.81784
747.101,71.55833,     -12.81938
747.619,71.61000,     -12.82202
748.137,71.66167,     -12.82456
748.655,71.71333,     -12.82621
749.173,71.76500,     -12.82674
749.692,71.81667,     -12.82708
750.212,71.86833,     -12.82742
750.728,71.92000,     -12.82817
751.244,71.97167,     -12.82871
751.76,72.02333,     -12.82985
752.272,72.07500,     -12.83079
752.787,72.12667,     -12.83213
753.302,72.17833,     -12.83407
753.821,72.23000,     -12.83571
754.339,72.28167,     -12.83615
754.856,72.33333,     -12.83609
755.371,72.38500,     -12.83583
755.888,72.43667,     -12.83567
756.407,72.48833,     -12.83660
756.922,72.54000,     -12.83915
757.435,72.59167,     -12.84279
757.949,72.64333,     -12.84653
758.464,72.69500,     -12.84786
758.983,72.74667,     -12.84660
759.501,72.79833,     -12.84564
760.02,72.85000,     -12.84537
760.533,72.90167,     -12.84621
761.053,72.95333,     -12.84865
761.57,73.00500,     -12.85079
762.084,73.05667,     -12.85072
762.603,73.10833,     -12.85066
763.113,73.16000,     -12.85140
763.632,73.21167,     -12.85224
764.147,73.26333,     -12.85337
764.665,73.31500,     -12.85401
765.177,73.36667,     -12.85555
765.692,73.41833,     -12.85768
766.205,73.47000,     -12.85852
766.725,73.52167,     -12.85805
767.242,73.57333,     -12.85799
767.758,73.62500,     -12.85892
768.274,73.67667,     -12.86036
768.795,73.72833,     -12.86149
769.31,73.78000,     -12.86432
769.826,73.83167,     -12.86736
770.342,73.88333,     -12.86899
770.859,73.93500,     -12.86943
771.375,73.98667,     -12.87036
771.895,74.03833,     -12.87069
772.414,74.09000,     -12.87082
772.932,74.14167,     -12.87066
773.445,74.19333,     -12.87139
773.963,74.24500,     -12.87292
774.48,74.29667,     -12.87435
774.997,74.34833,     -12.87469
775.516,74.40000,     -12.87492
776.034,74.45167,     -12.87525
776.549,74.50333,     -12.87658
777.068,74.55500,     -12.87841
777.586,74.60667,     -12.87974
778.098,74.65833,     -12.88097
778.617,74.71000,     -12.88200
779.133,74.76167,     -12.88253
779.655,74.81333,     -12.88216
780.173,74.86500,     -12.88239
780.688,74.91667,     -12.88302
781.204,74.96833,     -12.88365
781.717,75.02000,     -12.88478
782.236,75.07167,     -12.88601
782.753,75.12333,     -12.88744
783.268,75.17500,     -12.88916
783.789,75.22667,     -12.89099
784.307,75.27833,     -12.89212
784.821,75.33000,     -12.89315
785.336,75.38167,     -12.89407
785.851,75.43333,     -12.89500
786.365,75.48500,     -12.89643
786.88,75.53667,     -12.89776
787.393,75.58833,     -12.89889
787.912,75.64000,     -12.89931
788.427,75.69167,     -12.89914
788.944,75.74333,     -12.89926
789.46,75.79500,     -12.89989
789.979,75.84667,     -12.90091
790.492,75.89833,     -12.90153
791.011,75.95000,     -12.90266
791.527,76.00167,     -12.90408
792.044,76.05333,     -12.90671
792.562,76.10500,     -12.90883
793.084,76.15667,     -12.90995
793.604,76.20833,     -12.90997
794.121,76.26000,     -12.90979
794.641,76.31167,     -12.90941
795.156,76.36333,     -12.90924
795.669,76.41500,     -12.90996
796.184,76.46667,     -12.91089
796.697,76.51833,     -12.91231
797.219,76.57000,     -12.91392
797.739,76.62167,     -12.91624
798.255,76.67333,     -12.91816
798.772,76.72500,     -12.92038
799.29,76.77667,     -12.92170
799.357,76.78500,     -12.92179