File: data-raw/TGA/II_TGA.csv
#EXPORTTYPE:                 ,DATA SINGLE
#FILE:                       ,II.ngb-st9
#FORMAT:                     ,NETZSCH5
#FTYPE:                      ,ANSI
#IDENTITY:                   ,Saras
#DECIMAL:                    ,POINT
#SEPARATOR:                  ,COMMA
#MTYPE:                      ,TG
#INSTRUMENT:                 ,NETZSCH TG 209F1 Libra
#PROJECT:                    ,IL
#DATE/TIME:                  ,17/03/2017 11:28:17 AM (UTC+11)
#CORR. FILE:                 ,
#TEMPCAL:                    ,TCALZERO.TCX
#LABORATORY:                 ,Capture Lab
#OPERATOR:                   ,NJN
#REMARK:                     ,Training run
#SAMPLE:                     ,II
#SAMPLE MASS /mg:            ,10.9508
#MATERIAL:                   ,KHCO3
#TYPE OF CRUCIBLE:           ,Al2O3
#SAMPLE CRUCIBLE MASS /mg:   ,311.1153
#REFERENCE CRUCIBLE MASS /mg:,
#M.RANGE /mg:                ,2000
#CORR. CODE:                 ,090
#RANGE:                      ,32°C/10.0(K/min)/800°C
#SEGMENT:                    ,S1/1
#SEG. 1:                     ,32°C/10.0(K/min)/800°C

##Temp./°C,Time/min,Mass loss/mg
 31.63100, 0.00000,-1.008325e-003
 31.63400, 0.05167,-2.959294e-003
 31.68600, 0.10333,-4.775617e-003
 31.99500, 0.15500,-5.254730e-003
 32.39300, 0.20667,-4.517787e-003
 32.76000, 0.25833,-5.084244e-003
 33.13300, 0.31000,-6.073564e-003
 33.55300, 0.36167,-7.215836e-003
 34.01600, 0.41333,-8.273997e-003
 34.50900, 0.46500,-9.623640e-003
 35.02600, 0.51667,-1.104156e-002
 35.57100, 0.56833,-1.265441e-002
 36.14500, 0.62000,-1.414797e-002
 36.73900, 0.67167,-1.594133e-002
 37.35100, 0.72333,-1.794614e-002
 37.97700, 0.77500,-2.045844e-002
 38.61000, 0.82667,-2.341547e-002
 39.25900, 0.87833,-2.683074e-002
 39.90800, 0.93000,-3.011743e-002
 40.55900, 0.98167,-3.382360e-002
 41.21100, 1.03333,-3.708449e-002
 41.85500, 1.08500,-4.056521e-002
 42.49800, 1.13667,-4.411903e-002
 43.13600, 1.18833,-4.760532e-002
 43.76100, 1.24000,-5.165748e-002
 44.38700, 1.29167,-5.551081e-002
 44.99800, 1.34333,-5.972003e-002
 45.59700, 1.39500,-6.386830e-002
 46.18500, 1.44667,-6.852408e-002
 46.76600, 1.49833,-7.337525e-002
 47.33600, 1.55000,-7.822942e-002
 47.89500, 1.60167,-8.259089e-002
 48.44400, 1.65333,-8.781526e-002
 48.99000, 1.70500,-9.299393e-002
 49.52000, 1.75667,-9.804026e-002
 50.04800, 1.80833,      -0.10313
 50.56800, 1.86000,      -0.10804
 51.08100, 1.91167,      -0.11374
 51.59100, 1.96333,      -0.11887
 52.10000, 2.01500,      -0.12463
 52.60100, 2.06667,      -0.12988
 53.09900, 2.11833,      -0.13583
 53.59700, 2.17000,      -0.14183
 54.09600, 2.22167,      -0.14762
 54.59300, 2.27333,      -0.15373
 55.08400, 2.32500,      -0.15953
 55.58100, 2.37667,      -0.16616
 56.07900, 2.42833,      -0.17211
 56.57300, 2.48000,      -0.17825
 57.07600, 2.53167,      -0.18401
 57.57900, 2.58333,      -0.18997
 58.08100, 2.63500,      -0.19643
 58.58600, 2.68667,      -0.20260
 59.09300, 2.73833,      -0.20865
 59.60000, 2.79000,      -0.21512
 60.10900, 2.84167,      -0.22187
 60.62000, 2.89333,      -0.22813
 61.13300, 2.94500,      -0.23470
 61.65300, 2.99667,      -0.24087
 62.16800, 3.04833,      -0.24743
 62.68600, 3.10000,      -0.25366
 63.20400, 3.15167,      -0.25950
 63.72400, 3.20333,      -0.26596
 64.24400, 3.25500,      -0.27249
 64.76600, 3.30667,      -0.27983
 65.28500, 3.35833,      -0.28615
 65.80800, 3.41000,      -0.29269
 66.33100, 3.46167,      -0.29882
 66.84800, 3.51333,      -0.30560
 67.36800, 3.56500,      -0.31273
 67.89300, 3.61667,      -0.31876
 68.41400, 3.66833,      -0.32497
 68.93500, 3.72000,      -0.33079
 69.45900, 3.77167,      -0.33742
 69.98100, 3.82333,      -0.34382
 70.50200, 3.87500,      -0.35023
 71.02000, 3.92667,      -0.35631
 71.54300, 3.97833,      -0.36203
 72.06200, 4.03000,      -0.36794
 72.58200, 4.08167,      -0.37333
 73.10100, 4.13333,      -0.37934
 73.62300, 4.18500,      -0.38536
 74.13800, 4.23667,      -0.39154
 74.65700, 4.28833,      -0.39733
 75.17100, 4.34000,      -0.40283
 75.69000, 4.39167,      -0.40783
 76.20800, 4.44333,      -0.41354
 76.72800, 4.49500,      -0.41925
 77.24400, 4.54667,      -0.42435
 77.76200, 4.59833,      -0.42935
 78.28200, 4.65000,      -0.43385
 78.79800, 4.70167,      -0.43855
 79.31600, 4.75333,      -0.44325
 79.83100, 4.80500,      -0.44853
 80.34700, 4.85667,      -0.45352
 80.86000, 4.90833,      -0.45773
 81.38100, 4.96000,      -0.46225
 81.89900, 5.01167,      -0.46635
 82.41500, 5.06333,      -0.47124
 82.93100, 5.11500,      -0.47553
 83.44900, 5.16667,      -0.48033
 83.96600, 5.21833,      -0.48443
 84.48200, 5.27000,      -0.48841
 84.99600, 5.32167,      -0.49270
 85.51400, 5.37333,      -0.49631
 86.03300, 5.42500,      -0.49982
 86.54900, 5.47667,      -0.50320
 87.06900, 5.52833,      -0.50651
 87.58200, 5.58000,      -0.50968
 88.09700, 5.63167,      -0.51277
 88.61300, 5.68333,      -0.51567
 89.13200, 5.73500,      -0.51887
 89.65100, 5.78667,      -0.52187
 90.16800, 5.83833,      -0.52486
 90.68900, 5.89000,      -0.52817
 91.20300, 5.94167,      -0.53125
 91.72300, 5.99333,      -0.53425
 92.24000, 6.04500,      -0.53724
 92.75700, 6.09667,      -0.54032
 93.27200, 6.14833,      -0.54280
 93.78800, 6.20000,      -0.54540
 94.30700, 6.25167,      -0.54781
 94.82600, 6.30333,      -0.55020
 95.34400, 6.35500,      -0.55239
 95.85700, 6.40667,      -0.55477
 96.37700, 6.45833,      -0.55687
 96.89200, 6.51000,      -0.55925
 97.41000, 6.56167,      -0.56165
 97.92600, 6.61333,      -0.56364
 98.44600, 6.66500,      -0.56575
 98.96000, 6.71667,      -0.56733
 99.48000, 6.76833,      -0.56862
 99.99800, 6.82000,      -0.57002
100.515, 6.87167,      -0.57153
101.033, 6.92333,      -0.57315
101.548, 6.97500,      -0.57484
102.062, 7.02667,      -0.57625
102.581, 7.07833,      -0.57767
103.095, 7.13000,      -0.57887
103.61, 7.18167,      -0.58018
104.125, 7.23333,      -0.58179
104.646, 7.28500,      -0.58330
105.162, 7.33667,      -0.58491
105.678, 7.38833,      -0.58671
106.195, 7.44000,      -0.58820
106.707, 7.49167,      -0.58920
107.226, 7.54333,      -0.58991
107.742, 7.59500,      -0.59091
108.257, 7.64667,      -0.59190
108.776, 7.69833,      -0.59291
109.287, 7.75000,      -0.59418
109.801, 7.80167,      -0.59528
110.319, 7.85333,      -0.59627
110.837, 7.90500,      -0.59737
111.352, 7.95667,      -0.59826
111.867, 8.00833,      -0.59905
112.382, 8.06000,      -0.59973
112.897, 8.11167,      -0.60032
113.415, 8.16333,      -0.60121
113.931, 8.21500,      -0.60219
114.449, 8.26667,      -0.60318
114.961, 8.31833,      -0.60395
115.481, 8.37000,      -0.60464
115.996, 8.42167,      -0.60522
116.512, 8.47333,      -0.60610
117.03, 8.52500,      -0.60698
117.55, 8.57667,      -0.60787
118.065, 8.62833,      -0.60833
118.583, 8.68000,      -0.60902
119.098, 8.73167,      -0.60989
119.613, 8.78333,      -0.61045
120.131, 8.83500,      -0.61103
120.65, 8.88667,      -0.61171
121.167, 8.93833,      -0.61227
121.68, 8.99000,      -0.61272
122.196, 9.04167,      -0.61329
122.713, 9.09333,      -0.61386
123.229, 9.14500,      -0.61463
123.745, 9.19667,      -0.61510
124.263, 9.24833,      -0.61567
124.779, 9.30000,      -0.61653
125.296, 9.35167,      -0.61709
125.814, 9.40333,      -0.61786
126.335, 9.45500,      -0.61853
126.849, 9.50667,      -0.61898
127.365, 9.55833,      -0.61934
127.884, 9.61000,      -0.61980
128.4, 9.66167,      -0.62035
128.918, 9.71333,      -0.62091
129.435, 9.76500,      -0.62136
129.953, 9.81667,      -0.62202
130.465, 9.86833,      -0.62247
130.985, 9.92000,      -0.62291
131.498, 9.97167,      -0.62307
132.015,10.02333,      -0.62362
132.53,10.07500,      -0.62477
133.045,10.12667,      -0.62592
133.561,10.17833,      -0.62717
134.078,10.23000,      -0.62782
134.596,10.28167,      -0.62827
135.111,10.33333,      -0.62872
135.627,10.38500,      -0.62907
136.144,10.43667,      -0.62952
136.664,10.48833,      -0.62987
137.179,10.54000,      -0.63041
137.698,10.59167,      -0.63096
138.218,10.64333,      -0.63171
138.735,10.69500,      -0.63235
139.255,10.74667,      -0.63290
139.774,10.79833,      -0.63324
140.289,10.85000,      -0.63408
140.807,10.90167,      -0.63492
141.324,10.95333,      -0.63545
141.843,11.00500,      -0.63629
142.356,11.05667,      -0.63682
142.873,11.10833,      -0.63746
143.389,11.16000,      -0.63820
143.902,11.21167,      -0.63913
144.42,11.26333,      -0.64007
144.936,11.31500,      -0.64121
145.454,11.36667,      -0.64265
145.972,11.41833,      -0.64408
146.486,11.47000,      -0.64532
147.004,11.52167,      -0.64625
147.52,11.57333,      -0.64728
148.036,11.62500,      -0.64852
148.552,11.67667,      -0.64956
149.069,11.72833,      -0.65050
149.586,11.78000,      -0.65143
150.104,11.83167,      -0.65276
150.622,11.88333,      -0.65390
151.138,11.93500,      -0.65522
151.657,11.98667,      -0.65626
152.172,12.03833,      -0.65759
152.69,12.09000,      -0.65892
153.208,12.14167,      -0.66055
153.723,12.19333,      -0.66208
154.243,12.24500,      -0.66431
154.759,12.29667,      -0.66564
155.273,12.34833,      -0.66657
155.792,12.40000,      -0.66760
156.306,12.45167,      -0.66902
156.825,12.50333,      -0.67015
157.341,12.55500,      -0.67148
157.858,12.60667,      -0.67331
158.374,12.65833,      -0.67574
158.889,12.71000,      -0.67816
159.407,12.76167,      -0.67999
159.924,12.81333,      -0.68142
160.44,12.86500,      -0.68295
160.953,12.91667,      -0.68487
161.475,12.96833,      -0.68691
161.988,13.02000,      -0.68893
162.506,13.07167,      -0.69115
163.02,13.12333,      -0.69318
163.533,13.17500,      -0.69510
164.051,13.22667,      -0.69683
164.569,13.27833,      -0.69836
165.084,13.33000,      -0.69978
165.6,13.38167,      -0.70161
166.121,13.43333,      -0.70384
166.636,13.48500,      -0.70607
167.15,13.53667,      -0.70849
167.669,13.58833,      -0.71052
168.187,13.64000,      -0.71285
168.704,13.69167,      -0.71537
169.222,13.74333,      -0.71730
169.741,13.79500,      -0.71963
170.256,13.84667,      -0.72165
170.772,13.89833,      -0.72368
171.292,13.95000,      -0.72531
171.811,14.00167,      -0.72754
172.324,14.05333,      -0.73025
172.842,14.10500,      -0.73308
173.358,14.15667,      -0.73601
173.877,14.20833,      -0.73854
174.396,14.26000,      -0.74087
174.909,14.31167,      -0.74289
175.427,14.36333,      -0.74542
175.946,14.41500,      -0.74814
176.461,14.46667,      -0.75077
176.977,14.51833,      -0.75280
177.494,14.57000,      -0.75513
178.011,14.62167,      -0.75745
178.53,14.67333,      -0.75958
179.046,14.72500,      -0.76191
179.561,14.77667,      -0.76434
180.08,14.82833,      -0.76707
180.592,14.88000,      -0.76979
181.11,14.93167,      -0.77272
181.626,14.98333,      -0.77565
182.141,15.03500,      -0.77908
182.656,15.08667,      -0.78231
183.171,15.13833,      -0.78524
183.689,15.19000,      -0.78867
184.208,15.24167,      -0.79161
184.721,15.29333,      -0.79493
185.239,15.34500,      -0.79797
185.757,15.39667,      -0.80140
186.277,15.44833,      -0.80454
186.794,15.50000,      -0.80797
187.311,15.55167,      -0.81160
187.825,15.60333,      -0.81483
188.34,15.65500,      -0.81856
188.857,15.70667,      -0.82200
189.374,15.75833,      -0.82583
189.892,15.81000,      -0.82937
190.405,15.86167,      -0.83370
190.923,15.91333,      -0.83774
191.437,15.96500,      -0.84137
191.955,16.01667,      -0.84572
192.472,16.06833,      -0.84945
192.986,16.12000,      -0.85369
193.507,16.17167,      -0.85783
194.024,16.22333,      -0.86227
194.542,16.27500,      -0.86631
195.056,16.32667,      -0.87044
195.574,16.37833,      -0.87489
196.093,16.43000,      -0.87953
196.61,16.48167,      -0.88377
197.126,16.53333,      -0.88811
197.643,16.58500,      -0.89265
198.164,16.63667,      -0.89710
198.677,16.68833,      -0.90174
199.197,16.74000,      -0.90629
199.712,16.79167,      -0.91123
200.23,16.84333,      -0.91608
200.745,16.89500,      -0.92122
201.262,16.94667,      -0.92577
201.779,16.99833,      -0.93061
202.294,17.05000,      -0.93606
202.811,17.10167,      -0.94081
203.33,17.15333,      -0.94555
203.848,17.20500,      -0.94990
204.365,17.25667,      -0.95495
204.882,17.30833,      -0.95989
205.401,17.36000,      -0.96514
205.917,17.41167,      -0.97009
206.432,17.46333,      -0.97523
206.95,17.51500,      -0.98018
207.467,17.56667,      -0.98433
207.982,17.61833,      -0.98858
208.501,17.67000,      -0.99352
209.016,17.72167,      -0.99917
209.532,17.77333,      -1.00422
210.046,17.82500,      -1.00937
210.562,17.87667,      -1.01501
211.077,17.92833,      -1.01996
211.595,17.98000,      -1.02521
212.109,18.03167,      -1.03036
212.625,18.08333,      -1.03551
213.143,18.13500,      -1.04076
213.661,18.18667,      -1.04631
214.176,18.23833,      -1.05126
214.69,18.29000,      -1.05711
215.209,18.34167,      -1.06306
215.723,18.39333,      -1.06870
216.242,18.44500,      -1.07406
216.76,18.49667,      -1.07901
217.275,18.54833,      -1.08466
217.79,18.60000,      -1.09000
218.305,18.65167,      -1.09595
218.819,18.70333,      -1.10100
219.338,18.75500,      -1.10666
219.855,18.80667,      -1.11271
220.375,18.85833,      -1.11836
220.891,18.91000,      -1.12431
221.408,18.96167,      -1.13046
221.921,19.01333,      -1.13671
222.439,19.06500,      -1.14296
222.959,19.11667,      -1.14951
223.474,19.16833,      -1.15556
223.991,19.22000,      -1.16221
224.511,19.27167,      -1.16896
225.023,19.32333,      -1.17561
225.544,19.37500,      -1.18217
226.061,19.42667,      -1.18872
226.578,19.47833,      -1.19677
227.095,19.53000,      -1.20412
227.614,19.58167,      -1.21147
228.128,19.63333,      -1.21862
228.644,19.68500,      -1.22707
229.16,19.73667,      -1.23582
229.675,19.78833,      -1.24428
230.192,19.84000,      -1.25293
230.709,19.89167,      -1.26068
231.224,19.94333,      -1.26923
231.741,19.99500,      -1.27728
232.259,20.04667,      -1.28654
232.775,20.09833,      -1.29519
233.293,20.15000,      -1.30444
233.809,20.20167,      -1.31499
234.321,20.25333,      -1.32434
234.838,20.30500,      -1.33519
235.354,20.35667,      -1.34535
235.87,20.40833,      -1.35630
236.385,20.46000,      -1.36685
236.907,20.51167,      -1.37800
237.425,20.56333,      -1.38866
237.939,20.61500,      -1.40041
238.457,20.66667,      -1.41256
238.973,20.71833,      -1.42411
239.493,20.77000,      -1.43626
240.009,20.82167,      -1.44832
240.525,20.87333,      -1.46127
241.042,20.92500,      -1.47422
241.556,20.97667,      -1.50267
242.073,21.02833,      -1.51122
242.591,21.08000,      -1.52298
243.106,21.13167,      -1.53543
243.622,21.18333,      -1.56088
244.137,21.23500,      -1.57093
244.652,21.28667,      -1.58208
245.172,21.33833,      -1.59524
245.687,21.39000,      -1.62269
246.204,21.44167,      -1.63434
246.721,21.49333,      -1.65239
247.236,21.54500,      -1.67285
247.755,21.59667,      -1.69060
248.271,21.64833,      -1.70745
248.789,21.70000,      -1.72590
249.308,21.75167,      -1.74166
249.824,21.80333,      -1.75751
250.344,21.85500,      -1.77776
250.859,21.90667,      -1.79681
251.375,21.95833,      -1.81576
251.892,22.01000,      -1.83371
252.406,22.06167,      -1.85367
252.924,22.11333,      -1.87262
253.44,22.16500,      -1.89247
253.958,22.21667,      -1.91172
254.471,22.26833,      -1.93267
254.991,22.32000,      -1.95233
255.503,22.37167,      -1.97378
256.021,22.42333,      -1.99483
256.539,22.47500,      -2.01548
257.055,22.52667,      -2.03763
257.571,22.57833,      -2.05868
258.089,22.63000,      -2.07983
258.604,22.68167,      -2.10099
259.12,22.73333,      -2.12314
259.634,22.78500,      -2.14469
260.151,22.83667,      -2.16734
260.667,22.88833,      -2.18939
261.182,22.94000,      -2.21054
261.698,22.99167,      -2.23249
262.218,23.04333,      -2.25384
262.737,23.09500,      -2.27659
263.252,23.14667,      -2.29775
263.77,23.19833,      -2.32070
264.286,23.25000,      -2.34065
264.803,23.30167,      -2.36460
265.32,23.35333,      -2.38755
265.836,23.40500,      -2.40960
266.353,23.45667,      -2.43275
266.866,23.50833,      -2.45470
267.381,23.56000,      -2.47795
267.897,23.61167,      -2.49980
268.413,23.66333,      -2.52255
268.928,23.71500,      -2.54450
269.446,23.76667,      -2.56515
269.965,23.81833,      -2.58720
270.481,23.87000,      -2.60905
271.003,23.92167,      -2.63210
271.518,23.97333,      -2.65284
272.034,24.02500,      -2.67439
272.549,24.07667,      -2.69594
273.065,24.12833,      -2.71879
273.582,24.18000,      -2.73884
274.1,24.23167,      -2.76129
274.617,24.28333,      -2.78294
275.128,24.33500,      -2.80549
275.644,24.38667,      -2.82733
276.161,24.43833,      -2.84738
276.674,24.49000,      -2.86893
277.192,24.54167,      -2.88878
277.708,24.59333,      -2.91063
278.222,24.64500,      -2.93027
278.741,24.69667,      -2.95202
279.255,24.74833,      -2.97327
279.772,24.80000,      -2.99212
280.292,24.85167,      -3.01436
280.807,24.90333,      -3.03411
281.321,24.95500,      -3.05506
281.838,25.00667,      -3.07430
282.357,25.05833,      -3.09525
282.873,25.11000,      -3.11380
283.39,25.16167,      -3.13424
283.905,25.21333,      -3.15519
284.42,25.26500,      -3.17463
284.94,25.31667,      -3.19438
285.456,25.36833,      -3.21263
285.972,25.42000,      -3.23277
286.486,25.47167,      -3.25192
287.006,25.52333,      -3.27236
287.547,25.57500,      -3.29130
288.064,25.62667,      -3.31135
288.579,25.67833,      -3.33199
289.091,25.73000,      -3.35064
289.605,25.78167,      -3.37148
290.116,25.83333,      -3.39053
290.627,25.88500,      -3.41007
291.141,25.93667,      -3.42841
291.654,25.98833,      -3.44796
292.172,26.04000,      -3.46610
292.689,26.09167,      -3.48584
293.206,26.14333,      -3.50549
293.721,26.19500,      -3.52523
294.237,26.24667,      -3.54617
294.754,26.29833,      -3.56511
295.269,26.35000,      -3.58606
295.783,26.40167,      -3.60540
296.3,26.45333,      -3.62614
296.816,26.50500,      -3.64518
297.335,26.55667,      -3.66652
297.851,26.60833,      -3.68746
298.364,26.66000,      -3.70700
298.884,26.71167,      -3.72815
299.401,26.76333,      -3.74839
299.917,26.81500,      -3.77043
300.432,26.86667,      -3.79117
300.946,26.91833,      -3.81311
301.463,26.97000,      -3.83535
301.981,27.02167,      -3.85669
302.494,27.07333,      -3.87973
303.012,27.12500,      -3.90187
303.53,27.17667,      -3.92481
304.047,27.22833,      -3.94745
304.564,27.28000,      -3.97179
305.083,27.33167,      -3.99363
305.6,27.38333,      -4.01857
306.114,27.43500,      -4.04211
306.633,27.48667,      -4.06755
307.148,27.53833,      -4.09349
307.665,27.59000,      -4.11833
308.181,27.64167,      -4.14607
308.697,27.69333,      -4.17291
309.21,27.74500,      -4.20125
309.73,27.79667,      -4.22589
310.251,27.84833,      -4.25303
310.768,27.90000,      -4.27947
311.287,27.95167,      -4.30911
311.805,28.00333,      -4.33985
312.325,28.05500,      -4.36939
312.841,28.10667,      -4.40093
313.356,28.15833,      -4.43147
313.868,28.21000,      -4.46481
314.382,28.26167,      -4.49625
314.901,28.31333,      -4.52959
315.416,28.36500,      -4.56143
315.935,28.41667,      -4.59517
316.454,28.46833,      -4.63101
316.971,28.52000,      -4.66445
317.489,28.57167,      -4.70039
318.006,28.62333,      -4.73473
318.523,28.67500,      -4.77157
319.037,28.72667,      -4.80661
319.557,28.77833,      -4.84365
320.072,28.83000,      -4.87889
320.591,28.88167,      -4.91703
321.106,28.93333,      -4.95597
321.618,28.98500,      -4.99201
322.135,29.03667,      -5.02995
322.656,29.08833,      -5.06529
323.175,29.14000,      -5.10263
323.69,29.19167,      -5.13727
324.205,29.24333,      -5.17501
324.72,29.29500,      -5.20955
325.235,29.34667,      -5.24699
325.75,29.39833,      -5.28373
326.265,29.45000,      -5.31777
326.782,29.50167,      -5.35321
327.296,29.55333,      -5.38635
327.811,29.60500,      -5.42099
328.327,29.65667,      -5.45392
328.84,29.70833,      -5.48836
329.357,29.76000,      -5.51900
329.872,29.81167,      -5.54804
330.391,29.86333,      -5.57578
330.909,29.91500,      -5.60312
331.427,29.96667,      -5.63266
331.946,30.01833,      -5.65910
332.464,30.07000,      -5.68713
332.981,30.12167,      -5.71317
333.496,30.17333,      -5.73901
334.01,30.22500,      -5.76235
334.526,30.27667,      -5.78619
335.044,30.32833,      -5.80843
335.558,30.38000,      -5.82877
336.075,30.43167,      -5.84961
336.593,30.48333,      -5.86895
337.112,30.53500,      -5.88968
337.627,30.58667,      -5.90942
338.143,30.63833,      -5.92936
338.66,30.69000,      -5.94550
339.173,30.74167,      -5.96334
339.691,30.79333,      -5.98118
340.205,30.84500,      -5.99781
340.722,30.89667,      -6.01155
341.237,30.94833,      -6.02249
341.755,31.00000,      -6.03583
342.267,31.05167,      -6.05707
342.783,31.10333,      -6.07120
343.301,31.15500,      -6.08084
343.817,31.20667,      -6.09318
344.331,31.25833,      -6.11722
344.847,31.31000,      -6.12615
345.363,31.36167,      -6.13719
345.879,31.41333,      -6.14813
346.394,31.46500,      -6.16077
346.909,31.51667,      -6.17250
347.429,31.56833,      -6.18544
347.943,31.62000,      -6.19687
348.461,31.67167,      -6.20901
348.979,31.72333,      -6.22075
349.495,31.77500,      -6.23138
350.014,31.82667,      -6.24302
350.533,31.87833,      -6.25355
351.05,31.93000,      -6.26499
351.568,31.98167,      -6.27522
352.084,32.03333,      -6.28566
352.6,32.08500,      -6.29570
353.117,32.13667,      -6.30573
353.633,32.18833,      -6.31607
354.15,32.24000,      -6.32560
354.665,32.29167,      -6.33554
355.181,32.34333,      -6.34518
355.695,32.39500,      -6.35471
356.213,32.44667,      -6.36415
356.731,32.49833,      -6.37358
357.247,32.55000,      -6.38252
357.764,32.60167,      -6.39305
358.281,32.65333,      -6.40228
358.796,32.70500,      -6.41052
359.315,32.75667,      -6.41925
359.831,32.80833,      -6.42709
360.345,32.86000,      -6.43532
360.857,32.91167,      -6.44276
361.376,32.96333,      -6.45139
361.891,33.01500,      -6.45942
362.409,33.06667,      -6.46746
362.923,33.11833,      -6.47579
363.44,33.17000,      -6.48323
363.956,33.22167,      -6.49156
364.471,33.27333,      -6.49849
364.988,33.32500,      -6.50542
365.505,33.37667,      -6.51216
366.022,33.42833,      -6.51929
366.538,33.48000,      -6.52622
367.058,33.53167,      -6.53285
367.573,33.58333,      -6.53978
368.087,33.63500,      -6.54682
368.606,33.68667,      -6.55405
369.122,33.73833,      -6.56118
369.637,33.79000,      -6.56801
370.154,33.84167,      -6.57404
370.672,33.89333,      -6.58088
371.188,33.94500,      -6.58691
371.706,33.99667,      -6.59374
372.223,34.04833,      -6.60007
372.736,34.10000,      -6.60590
373.253,34.15167,      -6.61243
373.768,34.20333,      -6.61856
374.285,34.25500,      -6.62519
374.8,34.30667,      -6.63112
375.315,34.35833,      -6.63725
375.831,34.41000,      -6.64278
376.347,34.46167,      -6.64811
376.864,34.51333,      -6.65394
377.381,34.56500,      -6.65907
377.898,34.61667,      -6.66500
378.415,34.66833,      -6.67063
378.93,34.72000,      -6.67656
379.451,34.77167,      -6.68208
379.965,34.82333,      -6.68791
380.482,34.87500,      -6.69344
380.996,34.92667,      -6.69957
381.51,34.97833,      -6.70570
382.026,35.03000,      -6.71123
382.542,35.08167,      -6.71665
383.058,35.13333,      -6.72178
383.574,35.18500,      -6.72701
384.092,35.23667,      -6.73243
384.61,35.28833,      -6.73836
385.128,35.34000,      -6.74368
385.647,35.39167,      -6.74921
386.162,35.44333,      -6.75474
386.675,35.49500,      -6.75957
387.191,35.54667,      -6.76499
387.708,35.59833,      -6.76952
388.223,35.65000,      -6.77484
388.741,35.70167,      -6.77977
389.26,35.75333,      -6.78509
389.78,35.80500,      -6.79001
390.298,35.85667,      -6.79474
390.819,35.90833,      -6.80006
391.335,35.96000,      -6.80458
391.849,36.01167,      -6.80991
392.363,36.06333,      -6.81474
392.878,36.11500,      -6.82016
393.392,36.16667,      -6.82549
393.905,36.21833,      -6.83051
394.419,36.27000,      -6.83563
394.936,36.32167,      -6.84146
395.45,36.37333,      -6.84718
395.968,36.42500,      -6.85220
396.482,36.47667,      -6.85732
397,36.52833,      -6.86294
397.515,36.58000,      -6.86767
398.027,36.63167,      -6.87309
398.544,36.68333,      -6.87821
399.059,36.73500,      -6.88333
399.576,36.78667,      -6.88825
400.092,36.83833,      -6.89307
400.609,36.89000,      -6.89799
401.126,36.94167,      -6.90291
401.642,36.99333,      -6.90753
402.162,37.04500,      -6.91235
402.679,37.09667,      -6.91667
403.196,37.14833,      -6.92149
403.712,37.20000,      -6.92611
404.226,37.25167,      -6.93093
404.745,37.30333,      -6.93655
405.261,37.35500,      -6.94167
405.778,37.40667,      -6.94628
406.297,37.45833,      -6.95050
406.814,37.51000,      -6.95542
407.332,37.56167,      -6.95984
407.85,37.61333,      -6.96476
408.363,37.66500,      -6.96928
408.881,37.71667,      -6.97410
409.394,37.76833,      -6.97912
409.913,37.82000,      -6.98403
410.429,37.87167,      -6.98865
410.943,37.92333,      -6.99307
411.461,37.97500,      -6.99789
411.977,38.02667,      -7.00260
412.493,38.07833,      -7.00752
413.009,38.13000,      -7.01194
413.526,38.18167,      -7.01616
414.044,38.23333,      -7.02087
414.559,38.28500,      -7.02539
415.074,38.33667,      -7.03031
415.593,38.38833,      -7.03513
416.106,38.44000,      -7.03994
416.622,38.49167,      -7.04396
417.135,38.54333,      -7.04878
417.652,38.59500,      -7.05379
418.169,38.64667,      -7.05831
418.685,38.69833,      -7.06282
419.203,38.75000,      -7.06704
419.719,38.80167,      -7.07115
420.236,38.85333,      -7.07487
420.752,38.90500,      -7.07899
421.269,38.95667,      -7.08310
421.785,39.00833,      -7.08752
422.302,39.06000,      -7.09153
422.816,39.11167,      -7.09595
423.333,39.16333,      -7.10096
423.847,39.21500,      -7.10588
424.363,39.26667,      -7.11069
424.882,39.31833,      -7.11400
425.395,39.37000,      -7.11892
425.914,39.42167,      -7.12293
426.432,39.47333,      -7.12625
426.95,39.52500,      -7.12966
427.467,39.57667,      -7.13367
427.986,39.62833,      -7.13829
428.502,39.68000,      -7.14240
429.019,39.73167,      -7.14651
429.535,39.78333,      -7.15073
430.048,39.83500,      -7.15525
430.566,39.88667,      -7.15936
431.084,39.93833,      -7.16327
431.599,39.99000,      -7.16718
432.114,40.04167,      -7.17110
432.632,40.09333,      -7.17501
433.148,40.14500,      -7.17832
433.663,40.19667,      -7.18233
434.177,40.24833,      -7.18615
434.694,40.30000,      -7.19086
435.211,40.35167,      -7.19477
435.724,40.40333,      -7.19918
436.24,40.45500,      -7.20360
436.757,40.50667,      -7.20651
437.272,40.55833,      -7.20922
437.79,40.61000,      -7.21313
438.306,40.66167,      -7.21744
438.821,40.71333,      -7.22165
439.336,40.76500,      -7.22577
439.853,40.81667,      -7.22968
440.366,40.86833,      -7.23409
440.882,40.92000,      -7.23830
441.399,40.97167,      -7.24151
441.916,41.02333,      -7.24472
442.433,41.07500,      -7.24773
442.95,41.12667,      -7.25114
443.469,41.17833,      -7.25434
443.984,41.23000,      -7.25826
444.501,41.28167,      -7.26186
445.018,41.33333,      -7.26627
445.537,41.38500,      -7.27018
446.051,41.43667,      -7.27350
446.567,41.48833,      -7.27710
447.083,41.54000,      -7.28051
447.596,41.59167,      -7.28413
448.113,41.64333,      -7.28673
448.627,41.69500,      -7.28974
449.143,41.74667,      -7.29345
449.661,41.79833,      -7.29686
450.175,41.85000,      -7.30017
450.691,41.90167,      -7.30318
451.21,41.95333,      -7.30628
451.726,42.00500,      -7.30999
452.243,42.05667,      -7.31390
452.76,42.10833,      -7.31721
453.276,42.16000,      -7.32041
453.793,42.21167,      -7.32382
454.306,42.26333,      -7.32723
454.822,42.31500,      -7.33014
455.34,42.36667,      -7.33325
455.857,42.41833,      -7.33615
456.372,42.47000,      -7.33936
456.886,42.52167,      -7.34297
457.405,42.57333,      -7.34637
457.923,42.62500,      -7.34938
458.436,42.67667,      -7.35149
458.957,42.72833,      -7.35409
459.47,42.78000,      -7.35680
459.987,42.83167,      -7.36001
460.502,42.88333,      -7.36361
461.019,42.93500,      -7.36672
461.536,42.98667,      -7.36982
462.051,43.03833,      -7.37263
462.568,43.09000,      -7.37563
463.083,43.14167,      -7.37884
463.6,43.19333,      -7.38185
464.117,43.24500,      -7.38485
464.631,43.29667,      -7.38776
465.145,43.34833,      -7.39116
465.66,43.40000,      -7.39387
466.177,43.45167,      -7.39687
466.698,43.50333,      -7.40037
467.214,43.55500,      -7.40378
467.728,43.60667,      -7.40679
468.242,43.65833,      -7.40949
468.763,43.71000,      -7.41109
469.281,43.76167,      -7.41219
469.801,43.81333,      -7.41339
470.32,43.86500,      -7.41580
470.836,43.91667,      -7.41960
471.345,43.96833,      -7.42311
471.864,44.02000,      -7.42682
472.375,44.07167,      -7.43012
472.893,44.12333,      -7.43302
473.409,44.17500,      -7.43573
473.925,44.22667,      -7.43843
474.442,44.27833,      -7.44003
474.962,44.33000,      -7.44033
475.479,44.38167,      -7.44073
475.995,44.43333,      -7.44163
476.515,44.48500,      -7.44444
477.028,44.53667,      -7.44844
477.538,44.58833,      -7.45335
478.055,44.64000,      -7.45775
478.572,44.69167,      -7.46045
479.086,44.74333,      -7.46255
479.6,44.79500,      -7.46446
480.116,44.84667,      -7.46766
480.632,44.89833,      -7.47056
481.149,44.95000,      -7.47296
481.668,45.00167,      -7.47436
482.187,45.05333,      -7.47586
482.702,45.10500,      -7.47816
483.22,45.15667,      -7.48036
483.737,45.20833,      -7.48226
484.253,45.26000,      -7.48406
484.767,45.31167,      -7.48606
485.283,45.36333,      -7.48916
485.797,45.41500,      -7.49216
486.315,45.46667,      -7.49456
486.83,45.51833,      -7.49706
487.344,45.57000,      -7.49856
487.861,45.62167,      -7.49936
488.379,45.67333,      -7.50056
488.895,45.72500,      -7.50266
489.408,45.77667,      -7.50606
489.927,45.82833,      -7.50876
490.441,45.88000,      -7.51166
490.955,45.93167,      -7.51436
491.472,45.98333,      -7.51656
491.991,46.03500,      -7.51735
492.51,46.08667,      -7.51735
493.03,46.13833,      -7.51774
493.545,46.19000,      -7.51914
494.061,46.24167,      -7.52174
494.576,46.29333,      -7.52504
495.092,46.34500,      -7.52874
495.607,46.39667,      -7.53124
496.123,46.44833,      -7.53254
496.639,46.50000,      -7.53294
497.152,46.55167,      -7.53433
497.671,46.60333,      -7.53643
498.186,46.65500,      -7.53973
498.702,46.70667,      -7.54323
499.216,46.75833,      -7.54572
499.733,46.81000,      -7.54762
500.251,46.86167,      -7.54982
500.764,46.91333,      -7.55222
501.279,46.96500,      -7.55401
501.796,47.01667,      -7.55551
502.314,47.06833,      -7.55700
502.828,47.12000,      -7.55890
503.345,47.17167,      -7.56139
503.864,47.22333,      -7.56279
504.38,47.27500,      -7.56358
504.898,47.32667,      -7.56448
505.414,47.37833,      -7.56618
505.931,47.43000,      -7.56887
506.445,47.48167,      -7.57227
506.959,47.53333,      -7.57567
507.477,47.58500,      -7.57856
507.993,47.63667,      -7.58026
508.507,47.68833,      -7.58086
509.025,47.74000,      -7.58195
509.543,47.79167,      -7.58304
510.059,47.84333,      -7.58444
510.575,47.89500,      -7.58573
511.09,47.94667,      -7.58713
511.608,47.99833,      -7.58852
512.124,48.05000,      -7.59002
512.641,48.10167,      -7.59251
513.157,48.15333,      -7.59491
513.675,48.20500,      -7.59710
514.19,48.25667,      -7.59820
514.709,48.30833,      -7.59929
515.224,48.36000,      -7.60029
515.74,48.41167,      -7.60118
516.257,48.46333,      -7.60227
516.772,48.51500,      -7.60367
517.282,48.56667,      -7.60577
517.798,48.61833,      -7.60826
518.316,48.67000,      -7.61115
518.829,48.72167,      -7.61395
519.345,48.77333,      -7.61604
519.86,48.82500,      -7.61794
520.379,48.87667,      -7.61943
520.897,48.92833,      -7.62032
521.413,48.98000,      -7.62101
521.933,49.03167,      -7.62180
522.451,49.08333,      -7.62289
522.966,49.13500,      -7.62479
523.484,49.18667,      -7.62748
523.997,49.23833,      -7.63068
524.516,49.29000,      -7.63337
525.032,49.34167,      -7.63516
525.548,49.39333,      -7.63636
526.064,49.44500,      -7.63695
526.581,49.49667,      -7.63764
527.099,49.54833,      -7.63873
527.614,49.60000,      -7.64092
528.131,49.65167,      -7.64361
528.648,49.70333,      -7.64501
529.163,49.75500,      -7.64580
529.681,49.80667,      -7.64679
530.194,49.85833,      -7.64859
530.706,49.91000,      -7.65098
531.221,49.96167,      -7.65307
531.737,50.01333,      -7.65456
532.253,50.06500,      -7.65595
532.77,50.11667,      -7.65724
533.285,50.16833,      -7.65853
533.806,50.22000,      -7.65942
534.324,50.27167,      -7.66021
534.841,50.32333,      -7.66130
535.359,50.37500,      -7.66249
535.874,50.42667,      -7.66308
536.392,50.47833,      -7.66377
536.91,50.53000,      -7.66466
537.424,50.58167,      -7.66656
537.941,50.63333,      -7.66944
538.457,50.68500,      -7.67183
538.972,50.73667,      -7.67403
539.486,50.78833,      -7.67562
540.004,50.84000,      -7.67630
540.52,50.89167,      -7.67689
541.037,50.94333,      -7.67748
541.554,50.99500,      -7.67827
542.067,51.04667,      -7.67926
542.584,51.09833,      -7.68065
543.103,51.15000,      -7.68204
543.617,51.20167,      -7.68373
544.132,51.25333,      -7.68542
544.646,51.30500,      -7.68751
545.161,51.35667,      -7.68960
545.675,51.40833,      -7.69149
546.189,51.46000,      -7.69277
546.706,51.51167,      -7.69386
547.222,51.56333,      -7.69495
547.739,51.61500,      -7.69603
548.253,51.66667,      -7.69742
548.774,51.71833,      -7.69881
549.292,51.77000,      -7.69999
549.812,51.82167,      -7.70098
550.325,51.87333,      -7.70207
550.842,51.92500,      -7.70336
551.358,51.97667,      -7.70464
551.875,52.02833,      -7.70643
552.389,52.08000,      -7.70852
552.909,52.13167,      -7.71040
553.423,52.18333,      -7.71229
553.94,52.23500,      -7.71317
554.459,52.28667,      -7.71386
554.977,52.33833,      -7.71404
555.495,52.39000,      -7.71473
556.013,52.44167,      -7.71551
556.53,52.49333,      -7.71640
557.045,52.54500,      -7.71738
557.564,52.59667,      -7.71847
558.077,52.64833,      -7.71966
558.593,52.70000,      -7.72114
559.107,52.75167,      -7.72313
559.622,52.80333,      -7.72521
560.138,52.85500,      -7.72660
560.656,52.90667,      -7.72768
561.175,52.95833,      -7.72896
561.695,53.01000,      -7.73024
562.212,53.06167,      -7.73163
562.727,53.11333,      -7.73301
563.242,53.16500,      -7.73390
563.759,53.21667,      -7.73488
564.275,53.26833,      -7.73587
564.791,53.32000,      -7.73715
565.307,53.37167,      -7.73863
565.824,53.42333,      -7.73961
566.338,53.47500,      -7.74050
566.856,53.52667,      -7.74178
567.376,53.57833,      -7.74306
567.891,53.63000,      -7.74414
568.41,53.68167,      -7.74532
568.927,53.73333,      -7.74641
569.442,53.78500,      -7.74749
569.958,53.83667,      -7.74837
570.474,53.88833,      -7.74945
570.99,53.94000,      -7.75083
571.508,53.99167,      -7.75201
572.027,54.04333,      -7.75319
572.542,54.09500,      -7.75407
573.061,54.14667,      -7.75535
573.578,54.19833,      -7.75663
574.093,54.25000,      -7.75792
574.609,54.30167,      -7.75940
575.125,54.35333,      -7.76038
575.642,54.40500,      -7.76166
576.157,54.45667,      -7.76294
576.677,54.50833,      -7.76412
577.191,54.56000,      -7.76550
577.708,54.61167,      -7.76687
578.224,54.66333,      -7.76805
578.742,54.71500,      -7.76913
579.258,54.76667,      -7.77021
579.776,54.81833,      -7.77059
580.296,54.87000,      -7.77156
580.813,54.92167,      -7.77364
581.326,54.97333,      -7.77602
581.839,55.02500,      -7.77810
582.36,55.07667,      -7.77948
582.874,55.12833,      -7.78046
583.392,55.18000,      -7.78123
583.914,55.23167,      -7.78181
584.429,55.28333,      -7.78249
584.944,55.33500,      -7.78296
585.464,55.38667,      -7.78354
585.978,55.43833,      -7.78422
586.496,55.49000,      -7.78469
587.01,55.54167,      -7.78567
587.524,55.59333,      -7.78695
588.04,55.64500,      -7.78822
588.555,55.69667,      -7.78950
589.069,55.74833,      -7.79098
589.589,55.80000,      -7.79245
590.107,55.85167,      -7.79412
590.626,55.90333,      -7.79530
591.141,55.95500,      -7.79617
591.66,56.00667,      -7.79734
592.177,56.05833,      -7.79842
592.694,56.11000,      -7.79949
593.211,56.16167,      -7.80037
593.727,56.21333,      -7.80134
594.243,56.26500,      -7.80242
594.756,56.31667,      -7.80349
595.274,56.36833,      -7.80447
595.793,56.42000,      -7.80534
596.308,56.47167,      -7.80631
596.828,56.52333,      -7.80758
597.345,56.57500,      -7.80865
597.864,56.62667,      -7.80982
598.382,56.67833,      -7.81069
598.901,56.73000,      -7.81176
599.42,56.78167,      -7.81293
599.938,56.83333,      -7.81391
600.455,56.88500,      -7.81488
600.97,56.93667,      -7.81605
601.486,56.98833,      -7.81683
601.999,57.04000,      -7.81780
602.515,57.09167,      -7.81887
603.029,57.14333,      -7.81994
603.545,57.19500,      -7.82091
604.061,57.24667,      -7.82198
604.579,57.29833,      -7.82315
605.101,57.35000,      -7.82401
605.616,57.40167,      -7.82499
606.134,57.45333,      -7.82636
606.648,57.50500,      -7.82773
607.163,57.55667,      -7.82890
607.681,57.60833,      -7.82976
608.195,57.66000,      -7.83073
608.711,57.71167,      -7.83160
609.228,57.76333,      -7.83217
609.744,57.81500,      -7.83294
610.263,57.86667,      -7.83380
610.779,57.91833,      -7.83467
611.298,57.97000,      -7.83564
611.811,58.02167,      -7.83681
612.326,58.07333,      -7.83778
612.843,58.12500,      -7.83905
613.361,58.17667,      -7.84011
613.88,58.22833,      -7.84117
614.397,58.28000,      -7.84214
614.914,58.33167,      -7.84311
615.429,58.38333,      -7.84408
615.946,58.43500,      -7.84524
616.46,58.48667,      -7.84621
616.978,58.53833,      -7.84708
617.492,58.59000,      -7.84804
618.008,58.64167,      -7.84931
618.525,58.69333,      -7.85067
619.043,58.74500,      -7.85164
619.559,58.79667,      -7.85280
620.076,58.84833,      -7.85407
620.594,58.90000,      -7.85503
621.108,58.95167,      -7.85580
621.624,59.00333,      -7.85686
622.138,59.05500,      -7.85783
622.653,59.10667,      -7.85859
623.166,59.15833,      -7.85976
623.681,59.21000,      -7.86063
624.2,59.26167,      -7.86158
624.716,59.31333,      -7.86245
625.235,59.36500,      -7.86321
625.749,59.41667,      -7.86387
626.269,59.46833,      -7.86474
626.785,59.52000,      -7.86550
627.298,59.57167,      -7.86596
627.813,59.62333,      -7.86703
628.329,59.67500,      -7.86819
628.843,59.72667,      -7.86935
629.363,59.77833,      -7.87031
629.878,59.83000,      -7.87128
630.398,59.88167,      -7.87183
630.915,59.93333,      -7.87200
631.433,59.98500,      -7.87256
631.948,60.03667,      -7.87302
632.466,60.08833,      -7.87378
632.983,60.14000,      -7.87474
633.494,60.19167,      -7.87561
634.01,60.24333,      -7.87657
634.527,60.29500,      -7.87793
635.043,60.34667,      -7.87889
635.559,60.39833,      -7.87995
636.074,60.45000,      -7.88101
636.59,60.50167,      -7.88197
637.108,60.55333,      -7.88313
637.625,60.60500,      -7.88439
638.142,60.65667,      -7.88555
638.657,60.70833,      -7.88641
639.17,60.76000,      -7.88767
639.688,60.81167,      -7.88893
640.202,60.86333,      -7.88979
640.721,60.91500,      -7.89025
641.239,60.96667,      -7.89090
641.754,61.01833,      -7.89146
642.271,61.07000,      -7.89212
642.789,61.12167,      -7.89268
643.308,61.17333,      -7.89334
643.823,61.22500,      -7.89390
644.342,61.27667,      -7.89485
644.854,61.32833,      -7.89662
645.368,61.38000,      -7.89908
645.881,61.43167,      -7.90124
646.4,61.48333,      -7.90259
646.916,61.53500,      -7.90305
647.436,61.58667,      -7.90320
647.951,61.63833,      -7.90376
648.47,61.69000,      -7.90422
648.986,61.74167,      -7.90487
649.502,61.79333,      -7.90573
650.019,61.84500,      -7.90679
650.533,61.89667,      -7.90765
651.047,61.94833,      -7.90851
651.563,62.00000,      -7.90916
652.076,62.05167,      -7.90992
652.596,62.10333,      -7.91057
653.112,62.15500,      -7.91143
653.627,62.20667,      -7.91279
654.145,62.25833,      -7.91384
654.663,62.31000,      -7.91479
655.181,62.36167,      -7.91555
655.696,62.41333,      -7.91661
656.207,62.46500,      -7.91757
656.723,62.51667,      -7.91882
657.239,62.56833,      -7.91958
657.756,62.62000,      -7.92013
658.274,62.67167,      -7.92088
658.793,62.72333,      -7.92114
659.308,62.77500,      -7.92189
659.832,62.82667,      -7.92284
660.348,62.87833,      -7.92320
660.865,62.93000,      -7.92365
661.381,62.98167,      -7.92451
661.899,63.03333,      -7.92536
662.415,63.08500,      -7.92602
662.927,63.13667,      -7.92698
663.444,63.18833,      -7.92793
663.956,63.24000,      -7.92908
664.47,63.29167,      -7.93014
664.99,63.34333,      -7.93059
665.501,63.39500,      -7.93085
666.02,63.44667,      -7.93120
666.537,63.49833,      -7.93145
667.056,63.55000,      -7.93190
667.573,63.60167,      -7.93275
668.088,63.65333,      -7.93351
668.603,63.70500,      -7.93446
669.122,63.75667,      -7.93521
669.637,63.80833,      -7.93616
670.153,63.86000,      -7.93712
670.666,63.91167,      -7.93837
671.179,63.96333,      -7.93933
671.696,64.01500,      -7.94018
672.215,64.06667,      -7.94083
672.732,64.11833,      -7.94118
673.248,64.17000,      -7.94173
673.764,64.22167,      -7.94238
674.283,64.27333,      -7.94283
674.801,64.32500,      -7.94358
675.314,64.37667,      -7.94414
675.832,64.42833,      -7.94489
676.351,64.48000,      -7.94554
676.868,64.53167,      -7.94599
677.381,64.58333,      -7.94644
677.901,64.63500,      -7.94689
678.417,64.68667,      -7.94764
678.934,64.73833,      -7.94860
679.447,64.79000,      -7.94965
679.965,64.84167,      -7.95100
680.483,64.89333,      -7.95215
680.997,64.94500,      -7.95300
681.513,64.99667,      -7.95365
682.028,65.04833,      -7.95410
682.543,65.10000,      -7.95455
683.062,65.15167,      -7.95520
683.579,65.20333,      -7.95575
684.098,65.25500,      -7.95610
684.613,65.30667,      -7.95695
685.129,65.35833,      -7.95800
685.646,65.41000,      -7.95915
686.166,65.46167,      -7.96040
686.678,65.51333,      -7.96125
687.193,65.56500,      -7.96220
687.711,65.61667,      -7.96305
688.228,65.66833,      -7.96420
688.75,65.72000,      -7.96504
689.267,65.77167,      -7.96599
689.788,65.82333,      -7.96664
690.307,65.87500,      -7.96729
690.823,65.92667,      -7.96784
691.341,65.97833,      -7.96819
691.854,66.03000,      -7.96854
692.371,66.08167,      -7.96909
692.885,66.13333,      -7.96974
693.399,66.18500,      -7.97019
693.915,66.23667,      -7.97104
694.432,66.28833,      -7.97189
694.95,66.34000,      -7.97243
695.464,66.39167,      -7.97318
695.982,66.44333,      -7.97393
696.499,66.49500,      -7.97448
697.015,66.54667,      -7.97513
697.529,66.59833,      -7.97608
698.044,66.65000,      -7.97702
698.561,66.70167,      -7.97787
699.079,66.75333,      -7.97852
699.597,66.80500,      -7.97896
700.115,66.85667,      -7.97941
700.635,66.90833,      -7.97976
701.151,66.96000,      -7.98031
701.668,67.01167,      -7.98075
702.185,67.06333,      -7.98110
702.701,67.11500,      -7.98145
703.216,67.16667,      -7.98190
703.734,67.21833,      -7.98255
704.25,67.27000,      -7.98319
704.768,67.32167,      -7.98384
705.284,67.37333,      -7.98429
705.801,67.42500,      -7.98504
706.316,67.47667,      -7.98588
706.832,67.52833,      -7.98683
707.349,67.58000,      -7.98768
707.867,67.63167,      -7.98863
708.385,67.68333,      -7.98947
708.899,67.73500,      -7.99052
709.416,67.78667,      -7.99157
709.933,67.83833,      -7.99232
710.45,67.89000,      -7.99326
710.966,67.94167,      -7.99441
711.481,67.99333,      -7.99536
712,68.04500,      -7.99611
712.514,68.09667,      -7.99676
713.03,68.14833,      -7.99730
713.547,68.20000,      -7.99745
714.063,68.25167,      -7.99750
714.58,68.30333,      -7.99745
715.093,68.35500,      -7.99789
715.609,68.40667,      -7.99834
716.122,68.45833,      -7.99859
716.641,68.51000,      -7.99884
717.16,68.56167,      -7.99918
717.676,68.61333,      -7.99953
718.193,68.66500,      -8.00007
718.708,68.71667,      -8.00082
719.225,68.76833,      -8.00177
719.745,68.82000,      -8.00301
720.262,68.87167,      -8.00396
720.78,68.92333,      -8.00510
721.297,68.97500,      -8.00615
721.814,69.02667,      -8.00730
722.328,69.07833,      -8.00815
722.846,69.13000,      -8.00859
723.364,69.18167,      -8.00934
723.881,69.23333,      -8.00989
724.397,69.28500,      -8.01053
724.913,69.33667,      -8.01128
725.428,69.38833,      -8.01223
725.945,69.44000,      -8.01277
726.46,69.49167,      -8.01342
726.978,69.54333,      -8.01386
727.492,69.59500,      -8.01421
728.01,69.64667,      -8.01455
728.525,69.69833,      -8.01490
729.044,69.75000,      -8.01524
729.556,69.80167,      -8.01559
730.074,69.85333,      -8.01594
730.592,69.90500,      -8.01628
731.105,69.95667,      -8.01703
731.622,70.00833,      -8.01777
732.138,70.06000,      -8.01872
732.655,70.11167,      -8.01956
733.168,70.16333,      -8.02011
733.684,70.21500,      -8.02075
734.199,70.26667,      -8.02150
734.715,70.31833,      -8.02245
735.234,70.37000,      -8.02349
735.746,70.42167,      -8.02463
736.266,70.47333,      -8.02518
736.784,70.52500,      -8.02552
737.301,70.57667,      -8.02576
737.821,70.62833,      -8.02620
738.339,70.68000,      -8.02695
738.853,70.73167,      -8.02819
739.37,70.78333,      -8.02964
739.885,70.83500,      -8.03098
740.4,70.88667,      -8.03233
740.914,70.93833,      -8.03357
741.427,70.99000,      -8.03462
741.946,71.04167,      -8.03536
742.465,71.09333,      -8.03630
742.983,71.14500,      -8.03714
743.503,71.19667,      -8.03748
744.019,71.24833,      -8.03782
744.537,71.30000,      -8.03836
745.054,71.35167,      -8.03931
745.569,71.40333,      -8.04035
746.084,71.45500,      -8.04099
746.601,71.50667,      -8.04144
747.119,71.55833,      -8.04168
747.635,71.61000,      -8.04202
748.152,71.66167,      -8.04256
748.669,71.71333,      -8.04320
749.185,71.76500,      -8.04454
749.702,71.81667,      -8.04638
750.22,71.86833,      -8.04822
750.737,71.92000,      -8.04896
751.252,71.97167,      -8.04941
751.77,72.02333,      -8.04975
752.282,72.07500,      -8.05019
752.797,72.12667,      -8.05093
753.311,72.17833,      -8.05177
753.829,72.23000,      -8.05271
754.341,72.28167,      -8.05365
754.858,72.33333,      -8.05469
755.375,72.38500,      -8.05583
755.893,72.43667,      -8.05667
756.41,72.48833,      -8.05740
756.925,72.54000,      -8.05804
757.442,72.59167,      -8.05848
757.96,72.64333,      -8.05902
758.477,72.69500,      -8.05936
758.994,72.74667,      -8.05950
759.508,72.79833,      -8.05974
760.025,72.85000,      -8.06027
760.539,72.90167,      -8.06161
761.058,72.95333,      -8.06345
761.572,73.00500,      -8.06509
762.089,73.05667,      -8.06622
762.608,73.10833,      -8.06746
763.124,73.16000,      -8.06859
763.641,73.21167,      -8.06943
764.157,73.26333,      -8.07007
764.673,73.31500,      -8.07060
765.188,73.36667,      -8.07114
765.706,73.41833,      -8.07188
766.223,73.47000,      -8.07271
766.742,73.52167,      -8.07295
767.258,73.57333,      -8.07358
767.774,73.62500,      -8.07441
768.289,73.67667,      -8.07525
768.805,73.72833,      -8.07609
769.321,73.78000,      -8.07642
769.834,73.83167,      -8.07696
770.356,73.88333,      -8.07779
770.872,73.93500,      -8.07912
771.388,73.98667,      -8.08105
771.904,74.03833,      -8.08279
772.424,74.09000,      -8.08362
772.94,74.14167,      -8.08426
773.457,74.19333,      -8.08499
773.974,74.24500,      -8.08582
774.49,74.29667,      -8.08675
775.011,74.34833,      -8.08738
775.53,74.40000,      -8.08781
776.05,74.45167,      -8.08814
776.569,74.50333,      -8.08857
777.085,74.55500,      -8.08920
777.602,74.60667,      -8.08963
778.118,74.65833,      -8.08947
778.633,74.71000,      -8.09040
779.148,74.76167,      -8.09253
779.663,74.81333,      -8.09346
780.18,74.86500,      -8.09439
780.697,74.91667,      -8.09512
781.217,74.96833,      -8.09594
781.735,75.02000,      -8.09657
782.254,75.07167,      -8.09720
782.771,75.12333,      -8.09823
783.288,75.17500,      -8.09886
783.802,75.22667,      -8.09989
784.322,75.27833,      -8.10041
784.836,75.33000,      -8.10104
785.352,75.38167,      -8.10167
785.87,75.43333,      -8.10230
786.383,75.48500,      -8.10272
786.898,75.53667,      -8.10335
787.41,75.58833,      -8.10378
787.925,75.64000,      -8.10451
788.441,75.69167,      -8.10503
788.958,75.74333,      -8.10566
789.476,75.79500,      -8.10618
789.996,75.84667,      -8.10680
790.513,75.89833,      -8.10733
791.03,75.95000,      -8.10805
791.549,76.00167,      -8.10927
792.068,76.05333,      -8.11120
792.584,76.10500,      -8.11292
793.102,76.15667,      -8.11404
793.617,76.20833,      -8.11507
794.133,76.26000,      -8.11639
794.65,76.31167,      -8.11721
795.173,76.36333,      -8.11803
795.69,76.41500,      -8.11835
796.207,76.46667,      -8.11887
796.721,76.51833,      -8.11950
797.239,76.57000,      -8.12002
797.753,76.62167,      -8.12034
798.27,76.67333,      -8.12056
798.784,76.72500,      -8.12058
799.236,76.77000,      -8.12092