File: data-raw/TGA/J_TGA.csv
#EXPORTTYPE:                 ,DATA SINGLE
#FILE:                       ,J.ngb-st9
#FORMAT:                     ,NETZSCH5
#FTYPE:                      ,ANSI
#IDENTITY:                   ,Saras
#DECIMAL:                    ,POINT
#SEPARATOR:                  ,COMMA
#MTYPE:                      ,TG
#INSTRUMENT:                 ,NETZSCH TG 209F1 Libra
#PROJECT:                    ,IL
#DATE/TIME:                  ,17/03/2017 1:26:13 PM (UTC+11)
#CORR. FILE:                 ,
#TEMPCAL:                    ,TCALZERO.TCX
#LABORATORY:                 ,Capture Lab
#OPERATOR:                   ,NJN
#REMARK:                     ,Training run
#SAMPLE:                     ,J
#SAMPLE MASS /mg:            ,11.0150
#MATERIAL:                   ,KHCO3
#TYPE OF CRUCIBLE:           ,Al2O3
#SAMPLE CRUCIBLE MASS /mg:   ,311.9513
#REFERENCE CRUCIBLE MASS /mg:,
#M.RANGE /mg:                ,2000
#CORR. CODE:                 ,090
#RANGE:                      ,32°C/10.0(K/min)/800°C
#SEGMENT:                    ,S1/1
#SEG. 1:                     ,32°C/10.0(K/min)/800°C

##Temp./°C,Time/min,Mass loss/mg
 31.54900, 0.00000,-1.645848e-003
 31.54800, 0.05167,-3.135038e-003
 31.60500, 0.10333,-4.616951e-003
 31.91600, 0.15500,-4.987042e-003
 32.32400, 0.20667,-3.780511e-003
 32.70100, 0.25833,-3.904467e-003
 33.08500, 0.31000,-4.413145e-003
 33.51600, 0.36167,-5.051588e-003
 33.98800, 0.41333,-5.504742e-003
 34.49600, 0.46500,-6.080287e-003
 35.02000, 0.51667,-6.593699e-003
 35.57500, 0.56833,-7.376648e-003
 36.15300, 0.62000,-8.213784e-003
 36.75300, 0.67167,-9.405416e-003
 37.37300, 0.72333,-1.060936e-002
 38.00400, 0.77500,-1.201554e-002
 38.64300, 0.82667,-1.344352e-002
 39.29100, 0.87833,-1.501174e-002
 39.94500, 0.93000,-1.671019e-002
 40.60200, 0.98167,-1.833303e-002
 41.25200, 1.03333,-2.005251e-002
 41.89800, 1.08500,-2.221250e-002
 42.54300, 1.13667,-2.555839e-002
 43.17800, 1.18833,-2.843905e-002
 43.80500, 1.24000,-3.157788e-002
 44.42100, 1.29167,-3.426069e-002
 45.03000, 1.34333,-3.735191e-002
 45.62400, 1.39500,-4.060726e-002
 46.21100, 1.44667,-4.346978e-002
 46.79000, 1.49833,-4.641369e-002
 47.35500, 1.55000,-4.955969e-002
 47.90800, 1.60167,-5.289370e-002
 48.45500, 1.65333,-5.633546e-002
 48.99300, 1.70500,-5.991011e-002
 49.52500, 1.75667,-6.327706e-002
 50.04300, 1.80833,-6.693113e-002
 50.56400, 1.86000,-7.027432e-002
 51.07700, 1.91167,-7.368210e-002
 51.58000, 1.96333,-7.678811e-002
 52.08200, 2.01500,-8.073456e-002
 52.58200, 2.06667,-8.501381e-002
 53.08200, 2.11833,-8.869826e-002
 53.57800, 2.17000,-9.198002e-002
 54.07700, 2.22167,-9.520465e-002
 54.57500, 2.27333,-9.853967e-002
 55.07200, 2.32500,      -0.10226
 55.56600, 2.37667,      -0.10627
 56.06700, 2.42833,      -0.11083
 56.56300, 2.48000,      -0.11487
 57.06300, 2.53167,      -0.11942
 57.56500, 2.58333,      -0.12348
 58.06900, 2.63500,      -0.12794
 58.57300, 2.68667,      -0.13200
 59.08000, 2.73833,      -0.13656
 59.59000, 2.79000,      -0.14114
 60.10200, 2.84167,      -0.14531
 60.61600, 2.89333,      -0.14997
 61.12600, 2.94500,      -0.15420
 61.64500, 2.99667,      -0.15887
 62.16000, 3.04833,      -0.16353
 62.68000, 3.10000,      -0.16797
 63.19800, 3.15167,      -0.17221
 63.72000, 3.20333,      -0.17646
 64.23800, 3.25500,      -0.18079
 64.76100, 3.30667,      -0.18484
 65.27900, 3.35833,      -0.18935
 65.80500, 3.41000,      -0.19411
 66.32700, 3.46167,      -0.19843
 66.85100, 3.51333,      -0.20245
 67.37000, 3.56500,      -0.20675
 67.89300, 3.61667,      -0.21095
 68.40900, 3.66833,      -0.21576
 68.93300, 3.72000,      -0.22078
 69.45100, 3.77167,      -0.22528
 69.97400, 3.82333,      -0.22971
 70.49500, 3.87500,      -0.23401
 71.01300, 3.92667,      -0.23881
 71.53400, 3.97833,      -0.24322
 72.05100, 4.03000,      -0.24751
 72.57100, 4.08167,      -0.25192
 73.08800, 4.13333,      -0.25632
 73.60500, 4.18500,      -0.26042
 74.12600, 4.23667,      -0.26424
 74.64100, 4.28833,      -0.26803
 75.16100, 4.34000,      -0.27183
 75.67500, 4.39167,      -0.27591
 76.19500, 4.44333,      -0.27954
 76.71300, 4.49500,      -0.28323
 77.23000, 4.54667,      -0.28704
 77.74300, 4.59833,      -0.29102
 78.26200, 4.65000,      -0.29524
 78.78100, 4.70167,      -0.29874
 79.29800, 4.75333,      -0.30255
 79.81700, 4.80500,      -0.30595
 80.33300, 4.85667,      -0.30904
 80.85000, 4.90833,      -0.31194
 81.36500, 4.96000,      -0.31543
 81.88400, 5.01167,      -0.31833
 82.40100, 5.06333,      -0.32152
 82.91700, 5.11500,      -0.32523
 83.43700, 5.16667,      -0.32823
 83.95200, 5.21833,      -0.33133
 84.46900, 5.27000,      -0.33402
 84.98400, 5.32167,      -0.33701
 85.50000, 5.37333,      -0.33950
 86.01600, 5.42500,      -0.34190
 86.53500, 5.47667,      -0.34479
 87.05500, 5.52833,      -0.34741
 87.57000, 5.58000,      -0.35019
 88.09100, 5.63167,      -0.35240
 88.61000, 5.68333,      -0.35500
 89.12500, 5.73500,      -0.35748
 89.64400, 5.78667,      -0.35998
 90.15800, 5.83833,      -0.36216
 90.67200, 5.89000,      -0.36434
 91.19400, 5.94167,      -0.36626
 91.71000, 5.99333,      -0.36774
 92.22700, 6.04500,      -0.36924
 92.75100, 6.09667,      -0.37045
 93.26500, 6.14833,      -0.37213
 93.77800, 6.20000,      -0.37440
 94.29800, 6.25167,      -0.37719
 94.81600, 6.30333,      -0.37979
 95.33300, 6.35500,      -0.38209
 95.84900, 6.40667,      -0.38368
 96.36600, 6.45833,      -0.38516
 96.88200, 6.51000,      -0.38656
 97.39800, 6.56167,      -0.38734
 97.91200, 6.61333,      -0.38871
 98.43400, 6.66500,      -0.39003
 98.94500, 6.71667,      -0.39121
 99.46600, 6.76833,      -0.39223
 99.98400, 6.82000,      -0.39332
100.5, 6.87167,      -0.39453
101.019, 6.92333,      -0.39575
101.536, 6.97500,      -0.39705
102.054, 7.02667,      -0.39837
102.569, 7.07833,      -0.39958
103.085, 7.13000,      -0.40059
103.603, 7.18167,      -0.40169
104.117, 7.23333,      -0.40259
104.637, 7.28500,      -0.40361
105.152, 7.33667,      -0.40461
105.667, 7.38833,      -0.40571
106.185, 7.44000,      -0.40661
106.697, 7.49167,      -0.40740
107.215, 7.54333,      -0.40821
107.732, 7.59500,      -0.40880
108.246, 7.64667,      -0.40960
108.762, 7.69833,      -0.41029
109.276, 7.75000,      -0.41108
109.796, 7.80167,      -0.41189
110.31, 7.85333,      -0.41268
110.827, 7.90500,      -0.41357
111.345, 7.95667,      -0.41416
111.86, 8.00833,      -0.41475
112.381, 8.06000,      -0.41516
112.894, 8.11167,      -0.41563
113.413, 8.16333,      -0.41613
113.93, 8.21500,      -0.41670
114.449, 8.26667,      -0.41719
114.963, 8.31833,      -0.41766
115.479, 8.37000,      -0.41814
115.994, 8.42167,      -0.41862
116.511, 8.47333,      -0.41940
117.029, 8.52500,      -0.41998
117.546, 8.57667,      -0.42046
118.06, 8.62833,      -0.42092
118.576, 8.68000,      -0.42140
119.091, 8.73167,      -0.42197
119.607, 8.78333,      -0.42275
120.124, 8.83500,      -0.42322
120.636, 8.88667,      -0.42368
121.149, 8.93833,      -0.42424
121.665, 8.99000,      -0.42472
122.182, 9.04167,      -0.42529
122.698, 9.09333,      -0.42586
123.217, 9.14500,      -0.42634
123.734, 9.19667,      -0.42681
124.251, 9.24833,      -0.42718
124.768, 9.30000,      -0.42743
125.288, 9.35167,      -0.42751
125.802, 9.40333,      -0.42756
126.324, 9.45500,      -0.42783
126.841, 9.50667,      -0.42788
127.355, 9.55833,      -0.42794
127.874, 9.61000,      -0.42819
128.385, 9.66167,      -0.42844
128.904, 9.71333,      -0.42870
129.423, 9.76500,      -0.42886
129.939, 9.81667,      -0.42922
130.456, 9.86833,      -0.42957
130.973, 9.92000,      -0.42992
131.491, 9.97167,      -0.43018
132.005,10.02333,      -0.43063
132.524,10.07500,      -0.43129
133.045,10.12667,      -0.43154
133.563,10.17833,      -0.43179
134.08,10.23000,      -0.43184
134.597,10.28167,      -0.43188
135.112,10.33333,      -0.43223
135.629,10.38500,      -0.43247
136.144,10.43667,      -0.43291
136.663,10.48833,      -0.43317
137.179,10.54000,      -0.43351
137.694,10.59167,      -0.43395
138.21,10.64333,      -0.43450
138.732,10.69500,      -0.43485
139.247,10.74667,      -0.43518
139.765,10.79833,      -0.43563
140.284,10.85000,      -0.43597
140.8,10.90167,      -0.43651
141.317,10.95333,      -0.43695
141.837,11.00500,      -0.43740
142.35,11.05667,      -0.43783
142.868,11.10833,      -0.43827
143.384,11.16000,      -0.43871
143.901,11.21167,      -0.43914
144.419,11.26333,      -0.43968
144.935,11.31500,      -0.44002
145.452,11.36667,      -0.44045
145.969,11.41833,      -0.44078
146.485,11.47000,      -0.44123
147.001,11.52167,      -0.44186
147.518,11.57333,      -0.44229
148.037,11.62500,      -0.44273
148.553,11.67667,      -0.44307
149.067,11.72833,      -0.44349
149.586,11.78000,      -0.44393
150.1,11.83167,      -0.44445
150.618,11.88333,      -0.44500
151.133,11.93500,      -0.44562
151.651,11.98667,      -0.44615
152.17,12.03833,      -0.44679
152.686,12.09000,      -0.44742
153.203,12.14167,      -0.44795
153.721,12.19333,      -0.44878
154.238,12.24500,      -0.44921
154.752,12.29667,      -0.44983
155.268,12.34833,      -0.45016
155.783,12.40000,      -0.45059
156.301,12.45167,      -0.45102
156.819,12.50333,      -0.45146
157.335,12.55500,      -0.45188
157.85,12.60667,      -0.45241
158.369,12.65833,      -0.45284
158.884,12.71000,      -0.45407
159.401,12.76167,      -0.45549
159.919,12.81333,      -0.45622
160.432,12.86500,      -0.45705
160.951,12.91667,      -0.45778
161.468,12.96833,      -0.45850
161.982,13.02000,      -0.45992
162.496,13.07167,      -0.46125
163.014,13.12333,      -0.46258
163.53,13.17500,      -0.46361
164.046,13.22667,      -0.46434
164.562,13.27833,      -0.46526
165.082,13.33000,      -0.46619
165.595,13.38167,      -0.46662
166.112,13.43333,      -0.46704
166.626,13.48500,      -0.46796
167.145,13.53667,      -0.46889
167.66,13.58833,      -0.47002
168.178,13.64000,      -0.47145
168.696,13.69167,      -0.47278
169.212,13.74333,      -0.47380
169.73,13.79500,      -0.47473
170.247,13.84667,      -0.47526
170.765,13.89833,      -0.47598
171.281,13.95000,      -0.47710
171.797,14.00167,      -0.47823
172.312,14.05333,      -0.47935
172.829,14.10500,      -0.48038
173.347,14.15667,      -0.48171
173.862,14.20833,      -0.48294
174.381,14.26000,      -0.48397
174.898,14.31167,      -0.48509
175.414,14.36333,      -0.48632
175.932,14.41500,      -0.48735
176.45,14.46667,      -0.48858
176.97,14.51833,      -0.48931
177.486,14.57000,      -0.49023
178.003,14.62167,      -0.49146
178.522,14.67333,      -0.49249
179.038,14.72500,      -0.49401
179.553,14.77667,      -0.49634
180.067,14.82833,      -0.49806
180.585,14.88000,      -0.50050
181.102,14.93167,      -0.50253
181.617,14.98333,      -0.50405
182.137,15.03500,      -0.50499
182.655,15.08667,      -0.50652
183.17,15.13833,      -0.50825
183.686,15.19000,      -0.51067
184.202,15.24167,      -0.51321
184.72,15.29333,      -0.51514
185.238,15.34500,      -0.51647
185.754,15.39667,      -0.51760
186.272,15.44833,      -0.51894
186.786,15.50000,      -0.52067
187.3,15.55167,      -0.52289
187.818,15.60333,      -0.52533
188.333,15.65500,      -0.52817
188.853,15.70667,      -0.53140
189.368,15.75833,      -0.53404
189.885,15.81000,      -0.53687
190.399,15.86167,      -0.53920
190.919,15.91333,      -0.54144
191.434,15.96500,      -0.54418
191.949,16.01667,      -0.54712
192.465,16.06833,      -0.54965
192.985,16.12000,      -0.55199
193.502,16.17167,      -0.55493
194.02,16.22333,      -0.55797
194.538,16.27500,      -0.56201
195.052,16.32667,      -0.56574
195.569,16.37833,      -0.56969
196.086,16.43000,      -0.57323
196.599,16.48167,      -0.57696
197.119,16.53333,      -0.58041
197.637,16.58500,      -0.58406
198.153,16.63667,      -0.58790
198.671,16.68833,      -0.59184
199.191,16.74000,      -0.59589
199.703,16.79167,      -0.59973
200.227,16.84333,      -0.60418
200.741,16.89500,      -0.60902
201.257,16.94667,      -0.61427
201.775,16.99833,      -0.61921
202.286,17.05000,      -0.62465
202.807,17.10167,      -0.63010
203.319,17.15333,      -0.63495
203.838,17.20500,      -0.64020
204.353,17.25667,      -0.64514
204.871,17.30833,      -0.65039
205.387,17.36000,      -0.65564
205.904,17.41167,      -0.66129
206.422,17.46333,      -0.66703
206.936,17.51500,      -0.67318
207.452,17.56667,      -0.67953
207.965,17.61833,      -0.68547
208.482,17.67000,      -0.69152
208.999,17.72167,      -0.69747
209.517,17.77333,      -0.70392
210.032,17.82500,      -0.71007
210.548,17.87667,      -0.71662
211.068,17.92833,      -0.72307
211.585,17.98000,      -0.72942
212.1,18.03167,      -0.73637
212.619,18.08333,      -0.74302
213.136,18.13500,      -0.74976
213.654,18.18667,      -0.75601
214.171,18.23833,      -0.76326
214.688,18.29000,      -0.77041
215.206,18.34167,      -0.77766
215.721,18.39333,      -0.78421
216.236,18.44500,      -0.79106
216.753,18.49667,      -0.79821
217.269,18.54833,      -0.80506
217.785,18.60000,      -0.81231
218.303,18.65167,      -0.81976
218.82,18.70333,      -0.82691
219.337,18.75500,      -0.83396
219.854,18.80667,      -0.84181
220.37,18.85833,      -0.84836
220.886,18.91000,      -0.85621
221.403,18.96167,      -0.86416
221.92,19.01333,      -0.87141
222.435,19.06500,      -0.87986
222.952,19.11667,      -0.88731
223.468,19.16833,      -0.89556
223.985,19.22000,      -0.90341
224.505,19.27167,      -0.91147
225.023,19.32333,      -0.91932
225.542,19.37500,      -0.92767
226.058,19.42667,      -0.93602
226.575,19.47833,      -0.94457
227.091,19.53000,      -0.95342
227.608,19.58167,      -0.96247
228.122,19.63333,      -0.97242
228.64,19.68500,      -0.98157
229.156,19.73667,      -0.99142
229.672,19.78833,      -1.00048
230.186,19.84000,      -1.01083
230.703,19.89167,      -1.02118
231.219,19.94333,      -1.03123
231.737,19.99500,      -1.04228
232.253,20.04667,      -1.05294
232.772,20.09833,      -1.06469
233.287,20.15000,      -1.07544
233.8,20.20167,      -1.08749
234.316,20.25333,      -1.09954
234.835,20.30500,      -1.11270
235.348,20.35667,      -1.12615
235.866,20.40833,      -1.13870
236.384,20.46000,      -1.16705
236.9,20.51167,      -1.17560
237.419,20.56333,      -1.18696
237.937,20.61500,      -1.19851
238.454,20.66667,      -1.22416
238.973,20.71833,      -1.23432
239.491,20.77000,      -1.25147
240.006,20.82167,      -1.27532
240.521,20.87333,      -1.29197
241.035,20.92500,      -1.31022
241.548,20.97667,      -1.32727
242.066,21.02833,      -1.34552
242.58,21.08000,      -1.36368
243.098,21.13167,      -1.38313
243.613,21.18333,      -1.40118
244.133,21.23500,      -1.42113
244.648,21.28667,      -1.44159
245.166,21.33833,      -1.46144
245.684,21.39000,      -1.48289
246.2,21.44167,      -1.50274
246.717,21.49333,      -1.52440
247.238,21.54500,      -1.54535
247.756,21.59667,      -1.56880
248.27,21.64833,      -1.59095
248.787,21.70000,      -1.61460
249.303,21.75167,      -1.63856
249.82,21.80333,      -1.66101
250.336,21.85500,      -1.68606
250.85,21.90667,      -1.70951
251.366,21.95833,      -1.73446
251.884,22.01000,      -1.75841
252.4,22.06167,      -1.78367
252.916,22.11333,      -1.80772
253.432,22.16500,      -1.83307
253.947,22.21667,      -1.85912
254.463,22.26833,      -1.88357
254.982,22.32000,      -1.90953
255.495,22.37167,      -1.93498
256.011,22.42333,      -1.96193
256.526,22.47500,      -1.98678
257.043,22.52667,      -2.01293
257.558,22.57833,      -2.03808
258.074,22.63000,      -2.06464
258.592,22.68167,      -2.09159
259.108,22.73333,      -2.11714
259.626,22.78500,      -2.14449
260.141,22.83667,      -2.17014
260.658,22.88833,      -2.19699
261.175,22.94000,      -2.22224
261.691,22.99167,      -2.24919
262.207,23.04333,      -2.27634
262.722,23.09500,      -2.30160
263.242,23.14667,      -2.32875
263.758,23.19833,      -2.35370
264.275,23.25000,      -2.38025
264.791,23.30167,      -2.40500
265.309,23.35333,      -2.43155
265.826,23.40500,      -2.45650
266.343,23.45667,      -2.48285
266.859,23.50833,      -2.50900
267.375,23.56000,      -2.53335
267.891,23.61167,      -2.55980
268.406,23.66333,      -2.58405
268.922,23.71500,      -2.60960
269.437,23.76667,      -2.63405
269.953,23.81833,      -2.66050
270.47,23.87000,      -2.68365
270.985,23.92167,      -2.70910
271.499,23.97333,      -2.73285
272.018,24.02500,      -2.75789
272.534,24.07667,      -2.78274
273.053,24.12833,      -2.80619
273.568,24.18000,      -2.83134
274.087,24.23167,      -2.85499
274.6,24.28333,      -2.87924
275.117,24.33500,      -2.90219
275.633,24.38667,      -2.92644
276.148,24.43833,      -2.95078
276.663,24.49000,      -2.97373
277.182,24.54167,      -2.99738
277.697,24.59333,      -3.01913
278.214,24.64500,      -3.04258
278.728,24.69667,      -3.06422
279.249,24.74833,      -3.08707
279.764,24.80000,      -3.10942
280.282,24.85167,      -3.13256
280.797,24.90333,      -3.15601
281.313,24.95500,      -3.17776
281.828,25.00667,      -3.20080
282.345,25.05833,      -3.22265
282.861,25.11000,      -3.24570
283.377,25.16167,      -3.26724
283.896,25.21333,      -3.29059
284.41,25.26500,      -3.31214
284.927,25.31667,      -3.33508
285.445,25.36833,      -3.35933
285.983,25.42000,      -3.38097
286.501,25.47167,      -3.40422
287.018,25.52333,      -3.42596
287.53,25.57500,      -3.45011
288.043,25.62667,      -3.47235
288.556,25.67833,      -3.49579
289.069,25.73000,      -3.51844
289.583,25.78167,      -3.54318
290.097,25.83333,      -3.56743
290.613,25.88500,      -3.58997
291.13,25.93667,      -3.61452
291.645,25.98833,      -3.63786
292.161,26.04000,      -3.66260
292.679,26.09167,      -3.68685
293.193,26.14333,      -3.71249
293.711,26.19500,      -3.73663
294.224,26.24667,      -3.76237
294.74,26.29833,      -3.78852
295.256,26.35000,      -3.81356
295.774,26.40167,      -3.84100
296.29,26.45333,      -3.86714
296.805,26.50500,      -3.89428
297.323,26.55667,      -3.92152
297.839,26.60833,      -3.95057
298.357,26.66000,      -3.97741
298.877,26.71167,      -4.00685
299.389,26.76333,      -4.03679
299.907,26.81500,      -4.06523
300.426,26.86667,      -4.09667
300.941,26.91833,      -4.12671
301.455,26.97000,      -4.15935
301.974,27.02167,      -4.19009
302.489,27.07333,      -4.22363
303.004,27.12500,      -4.25667
303.52,27.17667,      -4.29141
304.035,27.22833,      -4.32655
304.552,27.28000,      -4.36089
305.067,27.33167,      -4.39793
305.585,27.38333,      -4.43327
306.105,27.43500,      -4.47161
306.62,27.48667,      -4.50755
307.138,27.53833,      -4.54709
307.658,27.59000,      -4.58433
308.174,27.64167,      -4.62547
308.692,27.69333,      -4.66751
309.21,27.74500,      -4.70765
309.726,27.79667,      -4.75219
310.245,27.84833,      -4.79353
310.758,27.90000,      -4.83877
311.275,27.95167,      -4.88221
311.793,28.00333,      -4.92705
312.31,28.05500,      -4.96959
312.824,28.10667,      -5.01693
313.342,28.15833,      -5.06627
313.858,28.21000,      -5.11281
314.374,28.26167,      -5.16055
314.893,28.31333,      -5.20699
315.409,28.36500,      -5.25843
315.928,28.41667,      -5.30607
316.443,28.46833,      -5.35641
316.961,28.52000,      -5.40425
317.478,28.57167,      -5.45599
317.99,28.62333,      -5.50833
318.506,28.67500,      -5.55487
319.024,28.72667,      -5.60411
319.541,28.77833,      -5.64945
320.063,28.83000,      -5.69849
320.583,28.88167,      -5.74433
321.097,28.93333,      -5.79157
321.616,28.98500,      -5.83541
322.132,29.03667,      -5.88165
322.649,29.08833,      -5.92639
323.165,29.14000,      -5.96833
323.68,29.19167,      -6.01177
324.196,29.24333,      -6.05071
324.715,29.29500,      -6.09085
325.229,29.34667,      -6.12829
325.742,29.39833,      -6.16633
326.258,29.45000,      -6.20077
326.774,29.50167,      -6.23491
327.295,29.55333,      -6.26614
327.809,29.60500,      -6.29548
328.323,29.65667,      -6.32872
328.839,29.70833,      -6.35446
329.354,29.76000,      -6.38090
329.87,29.81167,      -6.40544
330.385,29.86333,      -6.42968
330.899,29.91500,      -6.45082
331.413,29.96667,      -6.47216
331.929,30.01833,      -6.49280
332.442,30.07000,      -6.51014
332.957,30.12167,      -6.52818
333.475,30.17333,      -6.54342
333.992,30.22500,      -6.55355
334.506,30.27667,      -6.56539
335.027,30.32833,      -6.57823
335.543,30.38000,      -6.59417
336.06,30.43167,      -6.61151
336.574,30.48333,      -6.62105
337.09,30.53500,      -6.63089
337.607,30.58667,      -6.64202
338.124,30.63833,      -6.65296
338.638,30.69000,      -6.66430
339.155,30.74167,      -6.67444
339.672,30.79333,      -6.68488
340.185,30.84500,      -6.69462
340.704,30.89667,      -6.70495
341.218,30.94833,      -6.71489
341.739,31.00000,      -6.72353
342.255,31.05167,      -6.73236
342.775,31.10333,      -6.74050
343.292,31.15500,      -6.74964
343.806,31.20667,      -6.75808
344.321,31.25833,      -6.76662
344.837,31.31000,      -6.77475
345.354,31.36167,      -6.78369
345.869,31.41333,      -6.79283
346.385,31.46500,      -6.80047
346.902,31.51667,      -6.80830
347.415,31.56833,      -6.81564
347.935,31.62000,      -6.82377
348.453,31.67167,      -6.83071
348.967,31.72333,      -6.83745
349.486,31.77500,      -6.84438
350,31.82667,      -6.85182
350.518,31.87833,      -6.85906
351.031,31.93000,      -6.86599
351.55,31.98167,      -6.87383
352.065,32.03333,      -6.88087
352.584,32.08500,      -6.88780
353.097,32.13667,      -6.89414
353.614,32.18833,      -6.90017
354.129,32.24000,      -6.90611
354.643,32.29167,      -6.91275
355.161,32.34333,      -6.91868
355.681,32.39500,      -6.92461
356.196,32.44667,      -6.93135
356.711,32.49833,      -6.93798
357.225,32.55000,      -6.94462
357.745,32.60167,      -6.95105
358.258,32.65333,      -6.95809
358.775,32.70500,      -6.96442
359.295,32.75667,      -6.96976
359.814,32.80833,      -6.97479
360.332,32.86000,      -6.98012
360.848,32.91167,      -6.98656
361.366,32.96333,      -6.99189
361.886,33.01500,      -6.99732
362.402,33.06667,      -7.00275
362.918,33.11833,      -7.00919
363.433,33.17000,      -7.01483
363.948,33.22167,      -7.02056
364.466,33.27333,      -7.02609
364.981,33.32500,      -7.03192
365.496,33.37667,      -7.03856
366.012,33.42833,      -7.04459
366.526,33.48000,      -7.04942
367.045,33.53167,      -7.05486
367.555,33.58333,      -7.06119
368.073,33.63500,      -7.06652
368.59,33.68667,      -7.07205
369.107,33.73833,      -7.07708
369.622,33.79000,      -7.08182
370.144,33.84167,      -7.08684
370.656,33.89333,      -7.09178
371.174,33.94500,      -7.09741
371.692,33.99667,      -7.10214
372.208,34.04833,      -7.10717
372.726,34.10000,      -7.11170
373.244,34.15167,      -7.11793
373.76,34.20333,      -7.12396
374.276,34.25500,      -7.12949
374.792,34.30667,      -7.13542
375.306,34.35833,      -7.14055
375.822,34.41000,      -7.14548
376.339,34.46167,      -7.15061
376.859,34.51333,      -7.15604
377.371,34.56500,      -7.16157
377.887,34.61667,      -7.16640
378.402,34.66833,      -7.17173
378.918,34.72000,      -7.17656
379.434,34.77167,      -7.18119
379.951,34.82333,      -7.18622
380.464,34.87500,      -7.19135
380.978,34.92667,      -7.19597
381.494,34.97833,      -7.20080
382.011,35.03000,      -7.20533
382.529,35.08167,      -7.21015
383.048,35.13333,      -7.21528
383.562,35.18500,      -7.22091
384.077,35.23667,      -7.22664
384.594,35.28833,      -7.23156
385.11,35.34000,      -7.23619
385.624,35.39167,      -7.24062
386.145,35.44333,      -7.24584
386.659,35.49500,      -7.25107
387.177,35.54667,      -7.25509
387.696,35.59833,      -7.25992
388.211,35.65000,      -7.26494
388.729,35.70167,      -7.27037
389.244,35.75333,      -7.27539
389.76,35.80500,      -7.28012
390.274,35.85667,      -7.28474
390.79,35.90833,      -7.28937
391.31,35.96000,      -7.29379
391.825,36.01167,      -7.29742
392.341,36.06333,      -7.30184
392.859,36.11500,      -7.30636
393.371,36.16667,      -7.31119
393.891,36.21833,      -7.31621
394.404,36.27000,      -7.32133
394.921,36.32167,      -7.32545
395.439,36.37333,      -7.32988
395.954,36.42500,      -7.33470
396.47,36.47667,      -7.33972
396.987,36.52833,      -7.34424
397.503,36.58000,      -7.34817
398.02,36.63167,      -7.35329
398.532,36.68333,      -7.35751
399.053,36.73500,      -7.36173
399.568,36.78667,      -7.36555
400.085,36.83833,      -7.37027
400.6,36.89000,      -7.37499
401.12,36.94167,      -7.37931
401.637,36.99333,      -7.38393
402.151,37.04500,      -7.38785
402.67,37.09667,      -7.39237
403.188,37.14833,      -7.39669
403.704,37.20000,      -7.40151
404.221,37.25167,      -7.40593
404.736,37.30333,      -7.41085
405.251,37.35500,      -7.41577
405.765,37.40667,      -7.42079
406.282,37.45833,      -7.42531
406.795,37.51000,      -7.42923
407.315,37.56167,      -7.43254
407.832,37.61333,      -7.43626
408.351,37.66500,      -7.44078
408.866,37.71667,      -7.44480
409.384,37.76833,      -7.45001
409.9,37.82000,      -7.45403
410.414,37.87167,      -7.45805
410.929,37.92333,      -7.46297
411.444,37.97500,      -7.46749
411.96,38.02667,      -7.47261
412.476,38.07833,      -7.47663
412.992,38.13000,      -7.48064
413.512,38.18167,      -7.48436
414.027,38.23333,      -7.48928
414.544,38.28500,      -7.49439
415.06,38.33667,      -7.49931
415.575,38.38833,      -7.50433
416.095,38.44000,      -7.50814
416.61,38.49167,      -7.51186
417.128,38.54333,      -7.51537
417.642,38.59500,      -7.51899
418.158,38.64667,      -7.52321
418.672,38.69833,      -7.52773
419.19,38.75000,      -7.53274
419.705,38.80167,      -7.53706
420.22,38.85333,      -7.54178
420.735,38.90500,      -7.54619
421.25,38.95667,      -7.54961
421.768,39.00833,      -7.55302
422.285,39.06000,      -7.55693
422.801,39.11167,      -7.56095
423.32,39.16333,      -7.56546
423.838,39.21500,      -7.56928
424.354,39.26667,      -7.57269
424.871,39.31833,      -7.57711
425.386,39.37000,      -7.58112
425.902,39.42167,      -7.58564
426.42,39.47333,      -7.58955
426.932,39.52500,      -7.59377
427.448,39.57667,      -7.59758
427.964,39.62833,      -7.60149
428.48,39.68000,      -7.60571
429.001,39.73167,      -7.60982
429.519,39.78333,      -7.61353
430.035,39.83500,      -7.61714
430.551,39.88667,      -7.62066
431.066,39.93833,      -7.62397
431.584,39.99000,      -7.62748
432.099,40.04167,      -7.63080
432.615,40.09333,      -7.63471
433.13,40.14500,      -7.63882
433.647,40.19667,      -7.64234
434.16,40.24833,      -7.64605
434.68,40.30000,      -7.64906
435.192,40.35167,      -7.65197
435.711,40.40333,      -7.65538
436.228,40.45500,      -7.65970
436.744,40.50667,      -7.66361
437.259,40.55833,      -7.66742
437.777,40.61000,      -7.67053
438.295,40.66167,      -7.67374
438.813,40.71333,      -7.67685
439.33,40.76500,      -7.68056
439.847,40.81667,      -7.68557
440.361,40.86833,      -7.69019
440.876,40.92000,      -7.69560
441.389,40.97167,      -7.69981
441.901,41.02333,      -7.70332
442.418,41.07500,      -7.70663
442.933,41.12667,      -7.70994
443.449,41.17833,      -7.71385
443.966,41.23000,      -7.71726
444.482,41.28167,      -7.72117
444.996,41.33333,      -7.72458
445.512,41.38500,      -7.72759
446.031,41.43667,      -7.73090
446.548,41.48833,      -7.73351
447.07,41.54000,      -7.73531
447.588,41.59167,      -7.73722
448.107,41.64333,      -7.74063
448.623,41.69500,      -7.74394
449.139,41.74667,      -7.74695
449.652,41.79833,      -7.74986
450.168,41.85000,      -7.75387
450.681,41.90167,      -7.75868
451.194,41.95333,      -7.76179
451.707,42.00500,      -7.76520
452.224,42.05667,      -7.76881
452.741,42.10833,      -7.77191
453.259,42.16000,      -7.77512
453.777,42.21167,      -7.77762
454.295,42.26333,      -7.77993
454.813,42.31500,      -7.78294
455.328,42.36667,      -7.78605
455.848,42.41833,      -7.78985
456.363,42.47000,      -7.79286
456.88,42.52167,      -7.79557
457.394,42.57333,      -7.79858
457.911,42.62500,      -7.80148
458.427,42.67667,      -7.80499
458.944,42.72833,      -7.80790
459.463,42.78000,      -7.81050
459.977,42.83167,      -7.81271
460.495,42.88333,      -7.81501
461.012,42.93500,      -7.81782
461.524,42.98667,      -7.82143
462.038,43.03833,      -7.82534
462.553,43.09000,      -7.82854
463.07,43.14167,      -7.83164
463.587,43.19333,      -7.83455
464.103,43.24500,      -7.83735
464.621,43.29667,      -7.84016
465.139,43.34833,      -7.84276
465.655,43.40000,      -7.84557
466.171,43.45167,      -7.84757
466.688,43.50333,      -7.84968
467.206,43.55500,      -7.85218
467.718,43.60667,      -7.85509
468.236,43.65833,      -7.85789
468.753,43.71000,      -7.86030
469.269,43.76167,      -7.86250
469.785,43.81333,      -7.86510
470.301,43.86500,      -7.86771
470.818,43.91667,      -7.87001
471.335,43.96833,      -7.87291
471.852,44.02000,      -7.87532
472.371,44.07167,      -7.87732
472.887,44.12333,      -7.87872
473.402,44.17500,      -7.88143
473.915,44.22667,      -7.88413
474.431,44.27833,      -7.88773
474.946,44.33000,      -7.89064
475.46,44.38167,      -7.89314
475.976,44.43333,      -7.89544
476.491,44.48500,      -7.89765
477.008,44.53667,      -7.90055
477.526,44.58833,      -7.90295
478.047,44.64000,      -7.90504
478.562,44.69167,      -7.90675
479.077,44.74333,      -7.90905
479.59,44.79500,      -7.91206
480.103,44.84667,      -7.91496
480.617,44.89833,      -7.91786
481.134,44.95000,      -7.92056
481.647,45.00167,      -7.92317
482.164,45.05333,      -7.92526
482.684,45.10500,      -7.92746
483.201,45.15667,      -7.92886
483.716,45.20833,      -7.93016
484.234,45.26000,      -7.93136
484.753,45.31167,      -7.93226
485.271,45.36333,      -7.93366
485.788,45.41500,      -7.93536
486.304,45.46667,      -7.93726
486.819,45.51833,      -7.93936
487.336,45.57000,      -7.94146
487.851,45.62167,      -7.94346
488.37,45.67333,      -7.94616
488.882,45.72500,      -7.94866
489.397,45.77667,      -7.95107
489.913,45.82833,      -7.95326
490.432,45.88000,      -7.95546
490.948,45.93167,      -7.95776
491.464,45.98333,      -7.95996
491.979,46.03500,      -7.96216
492.496,46.08667,      -7.96446
493.013,46.13833,      -7.96685
493.526,46.19000,      -7.96985
494.041,46.24167,      -7.97245
494.557,46.29333,      -7.97435
495.073,46.34500,      -7.97545
495.586,46.39667,      -7.97665
496.104,46.44833,      -7.97814
496.62,46.50000,      -7.98074
497.137,46.55167,      -7.98314
497.653,46.60333,      -7.98523
498.168,46.65500,      -7.98683
498.687,46.70667,      -7.98773
499.205,46.75833,      -7.98892
499.719,46.81000,      -7.99032
500.232,46.86167,      -7.99232
500.75,46.91333,      -7.99442
501.264,46.96500,      -7.99671
501.779,47.01667,      -7.99861
502.297,47.06833,      -8.00011
502.814,47.12000,      -8.00140
503.331,47.17167,      -8.00270
503.847,47.22333,      -8.00429
504.365,47.27500,      -8.00649
504.883,47.32667,      -8.00878
505.4,47.37833,      -8.01098
505.915,47.43000,      -8.01308
506.432,47.48167,      -8.01517
506.948,47.53333,      -8.01737
507.464,47.58500,      -8.01927
507.979,47.63667,      -8.02076
508.496,47.68833,      -8.02206
509.01,47.74000,      -8.02315
509.526,47.79167,      -8.02445
510.04,47.84333,      -8.02544
510.558,47.89500,      -8.02684
511.077,47.94667,      -8.02823
511.596,47.99833,      -8.02962
512.112,48.05000,      -8.03132
512.627,48.10167,      -8.03282
513.143,48.15333,      -8.03461
513.66,48.20500,      -8.03651
514.177,48.25667,      -8.03850
514.691,48.30833,      -8.03980
515.206,48.36000,      -8.04099
515.723,48.41167,      -8.04218
516.232,48.46333,      -8.04348
516.751,48.51500,      -8.04488
517.27,48.56667,      -8.04637
517.783,48.61833,      -8.04826
518.299,48.67000,      -8.05016
518.812,48.72167,      -8.05245
519.327,48.77333,      -8.05485
519.842,48.82500,      -8.05694
520.36,48.87667,      -8.05873
520.879,48.92833,      -8.05972
521.402,48.98000,      -8.06111
521.922,49.03167,      -8.06230
522.436,49.08333,      -8.06320
522.956,49.13500,      -8.06429
523.469,49.18667,      -8.06529
523.984,49.23833,      -8.06608
524.499,49.29000,      -8.06678
525.016,49.34167,      -8.06727
525.532,49.39333,      -8.06776
526.051,49.44500,      -8.06855
526.568,49.49667,      -8.06954
527.085,49.54833,      -8.07083
527.603,49.60000,      -8.07242
528.122,49.65167,      -8.07461
528.634,49.70333,      -8.07701
529.148,49.75500,      -8.07891
529.662,49.80667,      -8.08020
530.177,49.85833,      -8.08219
530.688,49.91000,      -8.08459
531.203,49.96167,      -8.08708
531.721,50.01333,      -8.08986
532.236,50.06500,      -8.09226
532.752,50.11667,      -8.09485
533.271,50.16833,      -8.09573
533.789,50.22000,      -8.09652
534.305,50.27167,      -8.09732
534.822,50.32333,      -8.09780
535.343,50.37500,      -8.09809
535.861,50.42667,      -8.09838
536.375,50.47833,      -8.09878
536.889,50.53000,      -8.09937
537.404,50.58167,      -8.10086
537.921,50.63333,      -8.10325
538.434,50.68500,      -8.10504
538.952,50.73667,      -8.10643
539.47,50.78833,      -8.10672
539.989,50.84000,      -8.10710
540.507,50.89167,      -8.10789
541.021,50.94333,      -8.10909
541.533,50.99500,      -8.11068
542.05,51.04667,      -8.11287
542.562,51.09833,      -8.11566
543.078,51.15000,      -8.11715
543.596,51.20167,      -8.11753
544.113,51.25333,      -8.11792
544.632,51.30500,      -8.11770
545.15,51.35667,      -8.11769
545.663,51.40833,      -8.11878
546.18,51.46000,      -8.12138
546.695,51.51167,      -8.12386
547.209,51.56333,      -8.12595
547.725,51.61500,      -8.12714
548.238,51.66667,      -8.12783
548.753,51.71833,      -8.12832
549.27,51.77000,      -8.12870
549.788,51.82167,      -8.12899
550.306,51.87333,      -8.12987
550.826,51.92500,      -8.13116
551.34,51.97667,      -8.13315
551.859,52.02833,      -8.13513
552.372,52.08000,      -8.13662
552.889,52.13167,      -8.13781
553.407,52.18333,      -8.13889
553.924,52.23500,      -8.13998
554.441,52.28667,      -8.14066
554.959,52.33833,      -8.14095
555.477,52.39000,      -8.14183
555.994,52.44167,      -8.14282
556.51,52.49333,      -8.14390
557.026,52.54500,      -8.14499
557.541,52.59667,      -8.14598
558.059,52.64833,      -8.14686
558.58,52.70000,      -8.14774
559.096,52.75167,      -8.14853
559.613,52.80333,      -8.14931
560.124,52.85500,      -8.15030
560.638,52.90667,      -8.15179
561.155,52.95833,      -8.15287
561.672,53.01000,      -8.15395
562.185,53.06167,      -8.15494
562.702,53.11333,      -8.15582
563.224,53.16500,      -8.15700
563.741,53.21667,      -8.15808
564.26,53.26833,      -8.15886
564.777,53.32000,      -8.15965
565.292,53.37167,      -8.16093
565.805,53.42333,      -8.16282
566.323,53.47500,      -8.16490
566.835,53.52667,      -8.16639
567.354,53.57833,      -8.16747
567.865,53.63000,      -8.16805
568.383,53.68167,      -8.16833
568.899,53.73333,      -8.16861
569.415,53.78500,      -8.16880
569.934,53.83667,      -8.16957
570.452,53.88833,      -8.17025
570.968,53.94000,      -8.17094
571.483,53.99167,      -8.17202
572.003,54.04333,      -8.17300
572.519,54.09500,      -8.17428
573.035,54.14667,      -8.17566
573.546,54.19833,      -8.17825
574.06,54.25000,      -8.18113
574.577,54.30167,      -8.18231
575.092,54.35333,      -8.18249
575.61,54.40500,      -8.18266
576.127,54.45667,      -8.18304
576.645,54.50833,      -8.18392
577.164,54.56000,      -8.18480
577.679,54.61167,      -8.18518
578.197,54.66333,      -8.18566
578.71,54.71500,      -8.18654
579.224,54.76667,      -8.18752
579.739,54.81833,      -8.18860
580.254,54.87000,      -8.18948
580.771,54.92167,      -8.19016
581.289,54.97333,      -8.19083
581.806,55.02500,      -8.19171
582.324,55.07667,      -8.19259
582.845,55.12833,      -8.19346
583.364,55.18000,      -8.19433
583.883,55.23167,      -8.19491
584.401,55.28333,      -8.19569
584.916,55.33500,      -8.19657
585.428,55.38667,      -8.19735
585.943,55.43833,      -8.19813
586.457,55.49000,      -8.19931
586.971,55.54167,      -8.20038
587.485,55.59333,      -8.20126
588.003,55.64500,      -8.20223
588.515,55.69667,      -8.20311
589.032,55.74833,      -8.20399
589.55,55.80000,      -8.20486
590.069,55.85167,      -8.20573
590.588,55.90333,      -8.20650
591.105,55.95500,      -8.20738
591.625,56.00667,      -8.20795
592.144,56.05833,      -8.20862
592.66,56.11000,      -8.20920
593.179,56.16167,      -8.21007
593.694,56.21333,      -8.21085
594.211,56.26500,      -8.21182
594.73,56.31667,      -8.21300
595.244,56.36833,      -8.21397
595.763,56.42000,      -8.21434
596.282,56.47167,      -8.21531
596.799,56.52333,      -8.21599
597.318,56.57500,      -8.21656
597.835,56.62667,      -8.21703
598.352,56.67833,      -8.21730
598.867,56.73000,      -8.21778
599.385,56.78167,      -8.21835
599.902,56.83333,      -8.21882
600.418,56.88500,      -8.21939
600.938,56.93667,      -8.22026
601.455,56.98833,      -8.22113
601.97,57.04000,      -8.22220
602.486,57.09167,      -8.22318
603.001,57.14333,      -8.22425
603.519,57.19500,      -8.22552
604.034,57.24667,      -8.22649
604.553,57.29833,      -8.22726
605.067,57.35000,      -8.22823
605.586,57.40167,      -8.22949
606.101,57.45333,      -8.23036
606.62,57.50500,      -8.23113
607.139,57.55667,      -8.23160
607.653,57.60833,      -8.23197
608.171,57.66000,      -8.23224
608.689,57.71167,      -8.23221
609.205,57.76333,      -8.23208
609.718,57.81500,      -8.23225
610.236,57.86667,      -8.23271
610.753,57.91833,      -8.23398
611.27,57.97000,      -8.23595
611.782,58.02167,      -8.23732
612.299,58.07333,      -8.23809
612.815,58.12500,      -8.23875
613.331,58.17667,      -8.24082
613.847,58.22833,      -8.24269
614.366,58.28000,      -8.24365
614.881,58.33167,      -8.24402
615.398,58.38333,      -8.24459
615.914,58.43500,      -8.24475
616.432,58.48667,      -8.24512
616.948,58.53833,      -8.24568
617.466,58.59000,      -8.24635
617.982,58.64167,      -8.24711
618.499,58.69333,      -8.24748
619.011,58.74500,      -8.24765
619.526,58.79667,      -8.24822
620.042,58.84833,      -8.24928
620.56,58.90000,      -8.25044
621.077,58.95167,      -8.25110
621.593,59.00333,      -8.25197
622.113,59.05500,      -8.25233
622.628,59.10667,      -8.25320
623.143,59.15833,      -8.25427
623.656,59.21000,      -8.25523
624.174,59.26167,      -8.25569
624.691,59.31333,      -8.25605
625.209,59.36500,      -8.25652
625.727,59.41667,      -8.25688
626.246,59.46833,      -8.25754
626.762,59.52000,      -8.25800
627.279,59.57167,      -8.25837
627.794,59.62333,      -8.25883
628.308,59.67500,      -8.25990
628.826,59.72667,      -8.26076
629.339,59.77833,      -8.26172
629.856,59.83000,      -8.26258
630.373,59.88167,      -8.26384
630.888,59.93333,      -8.26491
631.405,59.98500,      -8.26577
631.921,60.03667,      -8.26653
632.437,60.08833,      -8.26709
632.957,60.14000,      -8.26745
633.472,60.19167,      -8.26781
633.988,60.24333,      -8.26817
634.505,60.29500,      -8.26853
635.02,60.34667,      -8.26929
635.536,60.39833,      -8.27015
636.052,60.45000,      -8.27102
636.571,60.50167,      -8.27197
637.086,60.55333,      -8.27274
637.604,60.60500,      -8.27359
638.121,60.65667,      -8.27425
638.637,60.70833,      -8.27471
639.153,60.76000,      -8.27518
639.669,60.81167,      -8.27554
640.187,60.86333,      -8.27599
640.702,60.91500,      -8.27685
641.22,60.96667,      -8.27771
641.737,61.01833,      -8.27847
642.253,61.07000,      -8.27933
642.77,61.12167,      -8.28008
643.288,61.17333,      -8.28054
643.802,61.22500,      -8.28050
644.321,61.27667,      -8.28086
644.84,61.32833,      -8.28122
645.354,61.38000,      -8.28188
645.87,61.43167,      -8.28284
646.386,61.48333,      -8.28359
646.901,61.53500,      -8.28435
647.418,61.58667,      -8.28471
647.935,61.63833,      -8.28487
648.454,61.69000,      -8.28552
648.969,61.74167,      -8.28608
649.484,61.79333,      -8.28664
650.001,61.84500,      -8.28709
650.515,61.89667,      -8.28795
651.029,61.94833,      -8.28891
651.547,62.00000,      -8.29007
652.064,62.05167,      -8.29042
652.582,62.10333,      -8.29038
653.096,62.15500,      -8.29033
653.613,62.20667,      -8.29079
654.13,62.25833,      -8.29135
654.643,62.31000,      -8.29150
655.163,62.36167,      -8.29186
655.678,62.41333,      -8.29251
656.195,62.46500,      -8.29297
656.709,62.51667,      -8.29333
657.225,62.56833,      -8.29368
657.744,62.62000,      -8.29433
658.263,62.67167,      -8.29489
658.778,62.72333,      -8.29574
659.297,62.77500,      -8.29639
659.813,62.82667,      -8.29745
660.331,62.87833,      -8.29861
660.848,62.93000,      -8.29996
661.364,62.98167,      -8.30101
661.879,63.03333,      -8.30177
662.399,63.08500,      -8.30212
662.916,63.13667,      -8.30197
663.432,63.18833,      -8.30223
663.948,63.24000,      -8.30288
664.466,63.29167,      -8.30404
664.977,63.34333,      -8.30539
665.493,63.39500,      -8.30645
666.01,63.44667,      -8.30710
666.524,63.49833,      -8.30695
667.043,63.55000,      -8.30650
667.56,63.60167,      -8.30666
668.075,63.65333,      -8.30721
668.59,63.70500,      -8.30787
669.107,63.75667,      -8.30822
669.624,63.80833,      -8.30847
670.139,63.86000,      -8.30862
670.656,63.91167,      -8.30897
671.172,63.96333,      -8.30963
671.689,64.01500,      -8.31058
672.205,64.06667,      -8.31153
672.719,64.11833,      -8.31209
673.238,64.17000,      -8.31223
673.755,64.22167,      -8.31259
674.269,64.27333,      -8.31294
674.784,64.32500,      -8.31379
675.302,64.37667,      -8.31454
675.815,64.42833,      -8.31590
676.329,64.48000,      -8.31765
676.845,64.53167,      -8.31850
677.365,64.58333,      -8.31885
677.884,64.63500,      -8.31880
678.404,64.68667,      -8.31865
678.919,64.73833,      -8.31850
679.436,64.79000,      -8.31895
679.955,64.84167,      -8.31960
680.467,64.89333,      -8.32065
680.982,64.94500,      -8.32101
681.499,64.99667,      -8.32166
682.016,65.04833,      -8.32241
682.533,65.10000,      -8.32286
683.05,65.15167,      -8.32340
683.566,65.20333,      -8.32426
684.082,65.25500,      -8.32500
684.601,65.30667,      -8.32545
685.116,65.35833,      -8.32610
685.633,65.41000,      -8.32635
686.149,65.46167,      -8.32600
686.667,65.51333,      -8.32605
687.183,65.56500,      -8.32640
687.699,65.61667,      -8.32705
688.219,65.66833,      -8.32760
688.733,65.72000,      -8.32775
689.256,65.77167,      -8.32810
689.768,65.82333,      -8.32965
690.283,65.87500,      -8.33230
690.794,65.92667,      -8.33545
691.314,65.97833,      -8.33730
691.829,66.03000,      -8.33765
692.35,66.08167,      -8.33739
692.871,66.13333,      -8.33674
693.389,66.18500,      -8.33569
693.905,66.23667,      -8.33504
694.422,66.28833,      -8.33478
694.938,66.34000,      -8.33483
695.45,66.39167,      -8.33529
695.967,66.44333,      -8.33594
696.485,66.49500,      -8.33718
696.997,66.54667,      -8.33863
697.512,66.59833,      -8.33958
698.031,66.65000,      -8.33993
698.545,66.70167,      -8.34058
699.06,66.75333,      -8.34142
699.578,66.80500,      -8.34147
700.099,66.85667,      -8.34092
700.622,66.90833,      -8.34016
701.139,66.96000,      -8.33961
701.655,67.01167,      -8.33986
702.171,67.06333,      -8.34021
702.687,67.11500,      -8.34006
703.202,67.16667,      -8.34040
703.715,67.21833,      -8.34235
704.235,67.27000,      -8.34360
704.755,67.32167,      -8.34324
705.273,67.37333,      -8.34309
705.79,67.42500,      -8.34344
706.306,67.47667,      -8.34399
706.822,67.52833,      -8.34494
707.336,67.58000,      -8.34629
707.846,67.63167,      -8.34754
708.362,67.68333,      -8.34829
708.879,67.73500,      -8.34873
709.396,67.78667,      -8.34938
709.915,67.83833,      -8.34992
710.428,67.89000,      -8.35067
710.944,67.94167,      -8.35192
711.46,67.99333,      -8.35277
711.978,68.04500,      -8.35271
712.497,68.09667,      -8.35226
713.016,68.14833,      -8.35130
713.536,68.20000,      -8.35035
714.054,68.25167,      -8.35010
714.568,68.30333,      -8.35045
715.085,68.35500,      -8.35119
715.6,68.40667,      -8.35204
716.115,68.45833,      -8.35239
716.632,68.51000,      -8.35284
717.149,68.56167,      -8.35318
717.664,68.61333,      -8.35393
718.178,68.66500,      -8.35478
718.694,68.71667,      -8.35623
719.211,68.76833,      -8.35767
719.723,68.82000,      -8.35982
720.247,68.87167,      -8.36166
720.767,68.92333,      -8.36331
721.283,68.97500,      -8.36486
721.802,69.02667,      -8.36540
722.317,69.07833,      -8.36575
722.832,69.13000,      -8.36620
723.345,69.18167,      -8.36685
723.863,69.23333,      -8.36739
724.379,69.28500,      -8.36754
724.895,69.33667,      -8.36748
725.411,69.38833,      -8.36773
725.928,69.44000,      -8.36778
726.447,69.49167,      -8.36782
726.959,69.54333,      -8.36787
727.478,69.59500,      -8.36831
727.996,69.64667,      -8.36816
728.512,69.69833,      -8.36820
729.03,69.75000,      -8.36815
729.548,69.80167,      -8.36759
730.065,69.85333,      -8.36744
730.583,69.90500,      -8.36779
731.093,69.95667,      -8.36893
731.608,70.00833,      -8.37088
732.124,70.06000,      -8.37273
732.641,70.11167,      -8.37277
733.16,70.16333,      -8.37151
733.682,70.21500,      -8.37045
734.201,70.26667,      -8.37029
734.718,70.31833,      -8.37054
735.233,70.37000,      -8.37129
735.746,70.42167,      -8.37223
736.259,70.47333,      -8.37268
736.776,70.52500,      -8.37273
737.288,70.57667,      -8.37337
737.806,70.62833,      -8.37521
738.32,70.68000,      -8.37656
738.838,70.73167,      -8.37820
739.356,70.78333,      -8.37914
739.875,70.83500,      -8.37938
740.392,70.88667,      -8.37883
740.907,70.93833,      -8.37827
741.425,70.99000,      -8.37792
741.942,71.04167,      -8.37776
742.455,71.09333,      -8.37770
742.973,71.14500,      -8.37794
743.491,71.19667,      -8.37879
744.007,71.24833,      -8.37973
744.522,71.30000,      -8.38097
745.036,71.35167,      -8.38222
745.551,71.40333,      -8.38326
746.066,71.45500,      -8.38370
746.585,71.50667,      -8.38424
747.1,71.55833,      -8.38468
747.615,71.61000,      -8.38513
748.134,71.66167,      -8.38577
748.651,71.71333,      -8.38641
749.169,71.76500,      -8.38705
749.684,71.81667,      -8.38779
750.199,71.86833,      -8.38943
750.718,71.92000,      -8.39077
751.235,71.97167,      -8.39131
751.753,72.02333,      -8.39125
752.268,72.07500,      -8.39109
752.785,72.12667,      -8.39103
753.306,72.17833,      -8.39127
753.82,72.23000,      -8.39171
754.334,72.28167,      -8.39215
754.848,72.33333,      -8.39219
755.366,72.38500,      -8.39223
755.881,72.43667,      -8.39237
756.4,72.48833,      -8.39251
756.915,72.54000,      -8.39255
757.43,72.59167,      -8.39269
757.947,72.64333,      -8.39292
758.462,72.69500,      -8.39337
758.976,72.74667,      -8.39390
759.494,72.79833,      -8.39434
760.006,72.85000,      -8.39488
760.521,72.90167,      -8.39572
761.037,72.95333,      -8.39676
761.555,73.00500,      -8.39769
762.065,73.05667,      -8.39853
762.583,73.10833,      -8.39937
763.101,73.16000,      -8.40020
763.622,73.21167,      -8.40104
764.144,73.26333,      -8.40157
764.659,73.31500,      -8.40191
765.175,73.36667,      -8.40244
765.693,73.41833,      -8.40298
766.212,73.47000,      -8.40341
766.724,73.52167,      -8.40375
767.243,73.57333,      -8.40429
767.757,73.62500,      -8.40472
768.273,73.67667,      -8.40506
768.788,73.72833,      -8.40559
769.304,73.78000,      -8.40623
769.824,73.83167,      -8.40666
770.338,73.88333,      -8.40699
770.856,73.93500,      -8.40733
771.371,73.98667,      -8.40726
771.891,74.03833,      -8.40709
772.408,74.09000,      -8.40692
772.923,74.14167,      -8.40676
773.446,74.19333,      -8.40729
773.961,74.24500,      -8.40772
774.48,74.29667,      -8.40865
774.989,74.34833,      -8.40959
775.508,74.40000,      -8.41042
776.024,74.45167,      -8.41105
776.54,74.50333,      -8.41148
777.058,74.55500,      -8.41181
777.575,74.60667,      -8.41194
778.089,74.65833,      -8.41208
778.607,74.71000,      -8.41261
779.124,74.76167,      -8.41254
779.641,74.81333,      -8.41247
780.158,74.86500,      -8.41279
780.673,74.91667,      -8.41323
781.189,74.96833,      -8.41375
781.71,75.02000,      -8.41478
782.22,75.07167,      -8.41641
782.737,75.12333,      -8.41874
783.253,75.17500,      -8.41987
783.766,75.22667,      -8.42000
784.284,75.27833,      -8.42033
784.805,75.33000,      -8.42035
785.322,75.38167,      -8.42088
785.836,75.43333,      -8.42131
786.354,75.48500,      -8.42223
786.871,75.53667,      -8.42356
787.385,75.58833,      -8.42479
787.9,75.64000,      -8.42531
788.422,75.69167,      -8.42554
788.943,75.74333,      -8.42586
789.459,75.79500,      -8.42608
789.975,75.84667,      -8.42611
790.492,75.89833,      -8.42633
791.01,75.95000,      -8.42666
791.527,76.00167,      -8.42658
792.043,76.05333,      -8.42671
792.562,76.10500,      -8.42673
793.076,76.15667,      -8.42695
793.593,76.20833,      -8.42738
794.112,76.26000,      -8.42750
794.631,76.31167,      -8.42742
795.148,76.36333,      -8.42764
795.664,76.41500,      -8.42746
796.18,76.46667,      -8.42749
796.696,76.51833,      -8.42781
797.21,76.57000,      -8.42793
797.723,76.62167,      -8.42785
798.239,76.67333,      -8.42847
798.751,76.72500,      -8.42940
799.261,76.77667,      -8.43182
799.394,76.79000,      -8.43267