File: data-raw/TGA/JJ_TGA.csv
#EXPORTTYPE:                 ,DATA SINGLE
#FILE:                       ,JJ.ngb-st9
#FORMAT:                     ,NETZSCH5
#FTYPE:                      ,ANSI
#IDENTITY:                   ,Saras
#DECIMAL:                    ,POINT
#SEPARATOR:                  ,COMMA
#MTYPE:                      ,TG
#INSTRUMENT:                 ,NETZSCH TG 209F1 Libra
#PROJECT:                    ,IL
#DATE/TIME:                  ,17/03/2017 3:35:39 PM (UTC+11)
#CORR. FILE:                 ,
#TEMPCAL:                    ,TCALZERO.TCX
#LABORATORY:                 ,Capture Lab
#OPERATOR:                   ,NJN
#REMARK:                     ,Training run
#SAMPLE:                     ,JJ
#SAMPLE MASS /mg:            ,11.2245
#MATERIAL:                   ,KHCO3
#TYPE OF CRUCIBLE:           ,Al2O3
#SAMPLE CRUCIBLE MASS /mg:   ,311.1365
#REFERENCE CRUCIBLE MASS /mg:,
#M.RANGE /mg:                ,2000
#CORR. CODE:                 ,090
#RANGE:                      ,32°C/10.0(K/min)/800°C
#SEGMENT:                    ,S1/1
#SEG. 1:                     ,32°C/10.0(K/min)/800°C

##Temp./°C,Time/min,Mass loss/mg
 31.32200, 0.00000,-2.138718e-003
 31.32500, 0.05167,-3.634576e-003
 31.39400, 0.10333,-5.004495e-003
 31.72400, 0.15500,-4.100798e-003
 32.13500, 0.20667,-3.689971e-003
 32.51000, 0.25833,-5.097510e-003
 32.90300, 0.31000,-6.519392e-003
 33.34300, 0.36167,-8.089035e-003
 33.83100, 0.41333,-9.221059e-003
 34.34700, 0.46500,-1.048913e-002
 34.88500, 0.51667,-1.182325e-002
 35.45400, 0.56833,-1.355593e-002
 36.04900, 0.62000,-1.532157e-002
 36.66900, 0.67167,-1.763852e-002
 37.29900, 0.72333,-2.071516e-002
 37.94100, 0.77500,-2.372289e-002
 38.60000, 0.82667,-2.756830e-002
 39.25600, 0.87833,-3.129122e-002
 39.91900, 0.93000,-3.503585e-002
 40.58600, 0.98167,-3.885843e-002
 41.24200, 1.03333,-4.275674e-002
 41.89900, 1.08500,-4.702088e-002
 42.54800, 1.13667,-5.082697e-002
 43.18800, 1.18833,-5.527149e-002
 43.81700, 1.24000,-5.967071e-002
 44.44000, 1.29167,-6.416714e-002
 45.04700, 1.34333,-6.862174e-002
 45.64600, 1.39500,-7.346937e-002
 46.23200, 1.44667,-7.859004e-002
 46.80900, 1.49833,-8.372863e-002
 47.37300, 1.55000,-8.906727e-002
 47.92600, 1.60167,-9.459078e-002
 48.47400, 1.65333,      -0.10006
 49.01100, 1.70500,      -0.10580
 49.54200, 1.75667,      -0.11199
 50.06400, 1.80833,      -0.11825
 50.57900, 1.86000,      -0.12455
 51.08800, 1.91167,      -0.13046
 51.59400, 1.96333,      -0.13728
 52.09100, 2.01500,      -0.14389
 52.58900, 2.06667,      -0.15016
 53.08400, 2.11833,      -0.15673
 53.57700, 2.17000,      -0.16332
 54.07100, 2.22167,      -0.17023
 54.56700, 2.27333,      -0.17677
 55.06400, 2.32500,      -0.18391
 55.55800, 2.37667,      -0.19045
 56.05300, 2.42833,      -0.19778
 56.54900, 2.48000,      -0.20533
 57.04800, 2.53167,      -0.21219
 57.55400, 2.58333,      -0.21958
 58.05500, 2.63500,      -0.22673
 58.56200, 2.68667,      -0.23419
 59.06900, 2.73833,      -0.24165
 59.57700, 2.79000,      -0.24932
 60.09000, 2.84167,      -0.25689
 60.60000, 2.89333,      -0.26485
 61.11500, 2.94500,      -0.27251
 61.63100, 2.99667,      -0.28008
 62.14900, 3.04833,      -0.28852
 62.66700, 3.10000,      -0.29689
 63.18900, 3.15167,      -0.30493
 63.71000, 3.20333,      -0.31266
 64.23100, 3.25500,      -0.32091
 64.75400, 3.30667,      -0.32836
 65.27500, 3.35833,      -0.33676
 65.79700, 3.41000,      -0.34510
 66.32100, 3.46167,      -0.35314
 66.84200, 3.51333,      -0.36144
 67.36400, 3.56500,      -0.36946
 67.88800, 3.61667,      -0.37808
 68.40800, 3.66833,      -0.38538
 68.93200, 3.72000,      -0.39351
 69.45100, 3.77167,      -0.40160
 69.97300, 3.82333,      -0.40862
 70.49200, 3.87500,      -0.41651
 71.01500, 3.92667,      -0.42364
 71.53300, 3.97833,      -0.43212
 72.04900, 4.03000,      -0.44112
 72.56900, 4.08167,      -0.45022
 73.08800, 4.13333,      -0.45813
 73.60800, 4.18500,      -0.46504
 74.12700, 4.23667,      -0.47113
 74.64500, 4.28833,      -0.47804
 75.16500, 4.34000,      -0.48526
 75.68200, 4.39167,      -0.49294
 76.19900, 4.44333,      -0.50023
 76.71700, 4.49500,      -0.50754
 77.23300, 4.54667,      -0.51513
 77.75100, 4.59833,      -0.52264
 78.27000, 4.65000,      -0.53044
 78.78600, 4.70167,      -0.53694
 79.30400, 4.75333,      -0.54394
 79.82200, 4.80500,      -0.55075
 80.33900, 4.85667,      -0.55743
 80.84900, 4.90833,      -0.56421
 81.37000, 4.96000,      -0.57062
 81.88900, 5.01167,      -0.57724
 82.40500, 5.06333,      -0.58293
 82.92100, 5.11500,      -0.58873
 83.43800, 5.16667,      -0.59542
 83.95300, 5.21833,      -0.60141
 84.47100, 5.27000,      -0.60751
 84.98600, 5.32167,      -0.61300
 85.50200, 5.37333,      -0.61891
 86.01800, 5.42500,      -0.62410
 86.54000, 5.47667,      -0.62991
 87.05700, 5.52833,      -0.63511
 87.57500, 5.58000,      -0.64051
 88.09100, 5.63167,      -0.64568
 88.61100, 5.68333,      -0.65089
 89.13100, 5.73500,      -0.65570
 89.64700, 5.78667,      -0.66018
 90.16500, 5.83833,      -0.66507
 90.68500, 5.89000,      -0.66987
 91.20100, 5.94167,      -0.67456
 91.72200, 5.99333,      -0.67896
 92.23900, 6.04500,      -0.68334
 92.75500, 6.09667,      -0.68782
 93.27300, 6.14833,      -0.69243
 93.78900, 6.20000,      -0.69661
 94.30400, 6.25167,      -0.70049
 94.82500, 6.30333,      -0.70459
 95.34000, 6.35500,      -0.70848
 95.85700, 6.40667,      -0.71247
 96.37200, 6.45833,      -0.71596
 96.89000, 6.51000,      -0.71975
 97.40400, 6.56167,      -0.72354
 97.92200, 6.61333,      -0.72683
 98.44000, 6.66500,      -0.73044
 98.95600, 6.71667,      -0.73373
 99.47000, 6.76833,      -0.73700
 99.99300, 6.82000,      -0.74032
100.508, 6.87167,      -0.74333
101.024, 6.92333,      -0.74624
101.544, 6.97500,      -0.74946
102.059, 7.02667,      -0.75286
102.578, 7.07833,      -0.75548
103.093, 7.13000,      -0.75828
103.608, 7.18167,      -0.76099
104.126, 7.23333,      -0.76379
104.642, 7.28500,      -0.76610
105.161, 7.33667,      -0.76891
105.675, 7.38833,      -0.77141
106.193, 7.44000,      -0.77352
106.707, 7.49167,      -0.77590
107.223, 7.54333,      -0.77751
107.739, 7.59500,      -0.77940
108.255, 7.64667,      -0.78160
108.772, 7.69833,      -0.78380
109.29, 7.75000,      -0.78590
109.803, 7.80167,      -0.78809
110.318, 7.85333,      -0.79028
110.833, 7.90500,      -0.79256
111.352, 7.95667,      -0.79496
111.867, 8.00833,      -0.79725
112.38, 8.06000,      -0.79892
112.899, 8.11167,      -0.80042
113.413, 8.16333,      -0.80151
113.932, 8.21500,      -0.80270
114.449, 8.26667,      -0.80388
114.96, 8.31833,      -0.80516
115.479, 8.37000,      -0.80643
115.993, 8.42167,      -0.80741
116.509, 8.47333,      -0.80830
117.025, 8.52500,      -0.80906
117.545, 8.57667,      -0.80966
118.062, 8.62833,      -0.81034
118.578, 8.68000,      -0.81161
119.095, 8.73167,      -0.81299
119.615, 8.78333,      -0.81397
120.128, 8.83500,      -0.81543
120.642, 8.88667,      -0.81649
121.16, 8.93833,      -0.81747
121.675, 8.99000,      -0.81843
122.192, 9.04167,      -0.81960
122.707, 9.09333,      -0.82087
123.227, 9.14500,      -0.82204
123.743, 9.19667,      -0.82340
124.259, 9.24833,      -0.82467
124.777, 9.30000,      -0.82583
125.295, 9.35167,      -0.82680
125.809, 9.40333,      -0.82765
126.321, 9.45500,      -0.82830
126.839, 9.50667,      -0.82877
127.354, 9.55833,      -0.82942
127.872, 9.61000,      -0.82999
128.39, 9.66167,      -0.83055
128.906, 9.71333,      -0.83101
129.418, 9.76500,      -0.83175
129.941, 9.81667,      -0.83252
130.455, 9.86833,      -0.83317
130.973, 9.92000,      -0.83383
131.49, 9.97167,      -0.83468
132.007,10.02333,      -0.83533
132.523,10.07500,      -0.83568
133.04,10.12667,      -0.83603
133.558,10.17833,      -0.83638
134.078,10.23000,      -0.83684
134.592,10.28167,      -0.83708
135.114,10.33333,      -0.83743
135.63,10.38500,      -0.83818
136.145,10.43667,      -0.83872
136.661,10.48833,      -0.83966
137.18,10.54000,      -0.84032
137.695,10.59167,      -0.84106
138.212,10.64333,      -0.84150
138.731,10.69500,      -0.84165
139.246,10.74667,      -0.84208
139.765,10.79833,      -0.84243
140.283,10.85000,      -0.84287
140.796,10.90167,      -0.84330
141.311,10.95333,      -0.84374
141.83,11.00500,      -0.84429
142.346,11.05667,      -0.84492
142.86,11.10833,      -0.84536
143.381,11.16000,      -0.84580
143.897,11.21167,      -0.84635
144.414,11.26333,      -0.84718
144.933,11.31500,      -0.84782
145.449,11.36667,      -0.84835
145.963,11.41833,      -0.84878
146.485,11.47000,      -0.84903
147.002,11.52167,      -0.84936
147.518,11.57333,      -0.84990
148.032,11.62500,      -0.85032
148.552,11.67667,      -0.85077
149.065,11.72833,      -0.85129
149.583,11.78000,      -0.85202
150.103,11.83167,      -0.85246
150.617,11.88333,      -0.85289
151.137,11.93500,      -0.85333
151.653,11.98667,      -0.85357
152.172,12.03833,      -0.85389
152.688,12.09000,      -0.85472
153.203,12.14167,      -0.85554
153.722,12.19333,      -0.85618
154.238,12.24500,      -0.85651
154.753,12.29667,      -0.85693
155.268,12.34833,      -0.85736
155.787,12.40000,      -0.85790
156.304,12.45167,      -0.85863
156.819,12.50333,      -0.85935
157.338,12.55500,      -0.85998
157.852,12.60667,      -0.86061
158.37,12.65833,      -0.86144
158.883,12.71000,      -0.86196
159.401,12.76167,      -0.86249
159.918,12.81333,      -0.86312
160.435,12.86500,      -0.86365
160.952,12.91667,      -0.86427
161.466,12.96833,      -0.86500
161.984,13.02000,      -0.86553
162.5,13.07167,      -0.86626
163.016,13.12333,      -0.86678
163.532,13.17500,      -0.86741
164.049,13.22667,      -0.86834
164.57,13.27833,      -0.86947
165.082,13.33000,      -0.87019
165.598,13.38167,      -0.87131
166.114,13.43333,      -0.87224
166.629,13.48500,      -0.87296
167.146,13.53667,      -0.87409
167.665,13.58833,      -0.87432
168.178,13.64000,      -0.87474
168.696,13.69167,      -0.87537
169.214,13.74333,      -0.87640
169.729,13.79500,      -0.87752
170.244,13.84667,      -0.87865
170.761,13.89833,      -0.87928
171.278,13.95000,      -0.88001
171.796,14.00167,      -0.88063
172.315,14.05333,      -0.88146
172.831,14.10500,      -0.88259
173.349,14.15667,      -0.88382
173.866,14.20833,      -0.88494
174.385,14.26000,      -0.88627
174.9,14.31167,      -0.88769
175.415,14.36333,      -0.88902
175.932,14.41500,      -0.89014
176.449,14.46667,      -0.89137
176.965,14.51833,      -0.89250
177.481,14.57000,      -0.89382
178.001,14.62167,      -0.89486
178.513,14.67333,      -0.89558
179.031,14.72500,      -0.89621
179.551,14.77667,      -0.89704
180.067,14.82833,      -0.89827
180.583,14.88000,      -0.89970
181.098,14.93167,      -0.90112
181.617,14.98333,      -0.90226
182.135,15.03500,      -0.90349
182.65,15.08667,      -0.90492
183.168,15.13833,      -0.90714
183.684,15.19000,      -0.90928
184.202,15.24167,      -0.91141
184.718,15.29333,      -0.91364
185.235,15.34500,      -0.91537
185.751,15.39667,      -0.91700
186.264,15.44833,      -0.91803
186.779,15.50000,      -0.91956
187.296,15.55167,      -0.92140
187.813,15.60333,      -0.92323
188.329,15.65500,      -0.92486
188.844,15.70667,      -0.92640
189.362,15.75833,      -0.92763
189.878,15.81000,      -0.92897
190.392,15.86167,      -0.93060
190.91,15.91333,      -0.93234
191.429,15.96500,      -0.93508
191.947,16.01667,      -0.93732
192.468,16.06833,      -0.93976
192.984,16.12000,      -0.94169
193.501,16.17167,      -0.94403
194.019,16.22333,      -0.94617
194.535,16.27500,      -0.94861
195.051,16.32667,      -0.95095
195.573,16.37833,      -0.95279
196.088,16.43000,      -0.95453
196.606,16.48167,      -0.95677
197.121,16.53333,      -0.95941
197.638,16.58500,      -0.96205
198.154,16.63667,      -0.96459
198.673,16.68833,      -0.96694
199.191,16.74000,      -0.96908
199.709,16.79167,      -0.97153
200.22,16.84333,      -0.97437
200.739,16.89500,      -0.97702
201.252,16.94667,      -0.97946
201.77,16.99833,      -0.98211
202.286,17.05000,      -0.98486
202.803,17.10167,      -0.98771
203.318,17.15333,      -0.99005
203.837,17.20500,      -0.99220
204.352,17.25667,      -0.99445
204.869,17.30833,      -0.99679
205.388,17.36000,      -0.99974
205.906,17.41167,      -1.00249
206.423,17.46333,      -1.00584
206.936,17.51500,      -1.00918
207.452,17.56667,      -1.01263
207.974,17.61833,      -1.01558
208.487,17.67000,      -1.01843
209.004,17.72167,      -1.02117
209.521,17.77333,      -1.02352
210.04,17.82500,      -1.02627
210.555,17.87667,      -1.02922
211.072,17.92833,      -1.03237
211.587,17.98000,      -1.03541
212.107,18.03167,      -1.03856
212.624,18.08333,      -1.04161
213.137,18.13500,      -1.04466
213.652,18.18667,      -1.04821
214.169,18.23833,      -1.05146
214.684,18.29000,      -1.05501
215.2,18.34167,      -1.05826
215.717,18.39333,      -1.06151
216.237,18.44500,      -1.06516
216.751,18.49667,      -1.06841
217.269,18.54833,      -1.07206
217.786,18.60000,      -1.07521
218.306,18.65167,      -1.07876
218.82,18.70333,      -1.08201
219.338,18.75500,      -1.08556
219.857,18.80667,      -1.08931
220.37,18.85833,      -1.09286
220.885,18.91000,      -1.09641
221.402,18.96167,      -1.10026
221.919,19.01333,      -1.10421
222.433,19.06500,      -1.10786
222.95,19.11667,      -1.11171
223.468,19.16833,      -1.11556
223.983,19.22000,      -1.11971
224.499,19.27167,      -1.12356
225.018,19.32333,      -1.12812
225.537,19.37500,      -1.13227
226.051,19.42667,      -1.13682
226.568,19.47833,      -1.14197
227.083,19.53000,      -1.14662
227.598,19.58167,      -1.15157
228.118,19.63333,      -1.15602
228.636,19.68500,      -1.16068
229.153,19.73667,      -1.16513
229.67,19.78833,      -1.16988
230.187,19.84000,      -1.17483
230.703,19.89167,      -1.18008
231.215,19.94333,      -1.18553
231.733,19.99500,      -1.19098
232.249,20.04667,      -1.19693
232.764,20.09833,      -1.20259
233.282,20.15000,      -1.20854
233.796,20.20167,      -1.21449
234.315,20.25333,      -1.22064
234.826,20.30500,      -1.22649
235.346,20.35667,      -1.23235
235.864,20.40833,      -1.23840
236.382,20.46000,      -1.24445
236.9,20.51167,      -1.25131
237.414,20.56333,      -1.25786
237.93,20.61500,      -1.26511
238.448,20.66667,      -1.27156
238.964,20.71833,      -1.27881
239.482,20.77000,      -1.28596
239.996,20.82167,      -1.29392
240.512,20.87333,      -1.30187
241.029,20.92500,      -1.30912
241.546,20.97667,      -1.31737
242.061,21.02833,      -1.32522
242.578,21.08000,      -1.33398
243.095,21.13167,      -1.34293
243.607,21.18333,      -1.35218
244.127,21.23500,      -1.36103
244.642,21.28667,      -1.37059
245.158,21.33833,      -1.38004
245.677,21.39000,      -1.38869
246.196,21.44167,      -1.39785
246.713,21.49333,      -1.40690
247.23,21.54500,      -1.41685
247.75,21.59667,      -1.42700
248.266,21.64833,      -1.43835
248.781,21.70000,      -1.44930
249.297,21.75167,      -1.46165
249.814,21.80333,      -1.47351
250.33,21.85500,      -1.48446
250.845,21.90667,      -1.49601
251.362,21.95833,      -1.50706
251.878,22.01000,      -1.51951
252.395,22.06167,      -1.53987
252.912,22.11333,      -1.55492
253.427,22.16500,      -1.56347
253.945,22.21667,      -1.57492
254.462,22.26833,      -1.58787
254.972,22.32000,      -1.61052
255.49,22.37167,      -1.62068
256.005,22.42333,      -1.63243
256.524,22.47500,      -1.65888
257.037,22.52667,      -1.66953
257.556,22.57833,      -1.67948
258.072,22.63000,      -1.69194
258.587,22.68167,      -1.71739
259.103,22.73333,      -1.72944
259.621,22.78500,      -1.74109
260.14,22.83667,      -1.76114
260.656,22.88833,      -1.78459
261.175,22.94000,      -1.80254
261.691,22.99167,      -1.81969
262.21,23.04333,      -1.83845
262.727,23.09500,      -1.85560
263.245,23.14667,      -1.87445
263.76,23.19833,      -1.89370
264.276,23.25000,      -1.90675
264.79,23.30167,      -1.93040
265.308,23.35333,      -1.94885
265.825,23.40500,      -1.96770
266.341,23.45667,      -1.98705
266.856,23.50833,      -2.00590
267.375,23.56000,      -2.02465
267.892,23.61167,      -2.04510
268.406,23.66333,      -2.06535
268.922,23.71500,      -2.08520
269.439,23.76667,      -2.10625
269.954,23.81833,      -2.12470
270.47,23.87000,      -2.14535
270.988,23.92167,      -2.16610
271.506,23.97333,      -2.18905
272.025,24.02500,      -2.21040
272.54,24.07667,      -2.23314
273.055,24.12833,      -2.25449
273.573,24.18000,      -2.27554
274.089,24.23167,      -2.29849
274.605,24.28333,      -2.31934
275.125,24.33500,      -2.34169
275.638,24.38667,      -2.36313
276.157,24.43833,      -2.38558
276.674,24.49000,      -2.40773
277.189,24.54167,      -2.43138
277.705,24.59333,      -2.45413
278.223,24.64500,      -2.47587
278.74,24.69667,      -2.49972
279.257,24.74833,      -2.52267
279.773,24.80000,      -2.54672
280.289,24.85167,      -2.56866
280.804,24.90333,      -2.59231
281.32,24.95500,      -2.61676
281.838,25.00667,      -2.63940
282.352,25.05833,      -2.66385
282.874,25.11000,      -2.68760
283.387,25.16167,      -2.71354
283.901,25.21333,      -2.73779
284.424,25.26500,      -2.76343
284.964,25.31667,      -2.78778
285.482,25.36833,      -2.81302
285.994,25.42000,      -2.83877
286.506,25.47167,      -2.86221
287.017,25.52333,      -2.88856
287.527,25.57500,      -2.91291
288.04,25.62667,      -2.93895
288.551,25.67833,      -2.96380
289.068,25.73000,      -2.98974
289.581,25.78167,      -3.01568
290.095,25.83333,      -3.04063
290.61,25.88500,      -3.06527
291.127,25.93667,      -3.09172
291.642,25.98833,      -3.11836
292.158,26.04000,      -3.14360
292.676,26.09167,      -3.17005
293.194,26.14333,      -3.19579
293.706,26.19500,      -3.22263
294.225,26.24667,      -3.24817
294.744,26.29833,      -3.27532
295.257,26.35000,      -3.30016
295.779,26.40167,      -3.32760
296.294,26.45333,      -3.35414
296.807,26.50500,      -3.37948
297.327,26.55667,      -3.40782
297.841,26.60833,      -3.43387
298.357,26.66000,      -3.46171
298.874,26.71167,      -3.48825
299.392,26.76333,      -3.51569
299.91,26.81500,      -3.54153
300.43,26.86667,      -3.56857
300.945,26.91833,      -3.59631
301.464,26.97000,      -3.62285
301.98,27.02167,      -3.65139
302.498,27.07333,      -3.67793
303.014,27.12500,      -3.70627
303.53,27.17667,      -3.73311
304.045,27.22833,      -3.76105
304.559,27.28000,      -3.78809
305.075,27.33167,      -3.81693
305.59,27.38333,      -3.84557
306.109,27.43500,      -3.87201
306.624,27.48667,      -3.90045
307.143,27.53833,      -3.92789
307.66,27.59000,      -3.95673
308.176,27.64167,      -3.98417
308.695,27.69333,      -4.01441
309.213,27.74500,      -4.04195
309.725,27.79667,      -4.07239
310.244,27.84833,      -4.10283
310.758,27.90000,      -4.13147
311.269,27.95167,      -4.16091
311.79,28.00333,      -4.18935
312.306,28.05500,      -4.21979
312.824,28.10667,      -4.24893
313.34,28.15833,      -4.27937
313.856,28.21000,      -4.31051
314.375,28.26167,      -4.33935
314.894,28.31333,      -4.37099
315.408,28.36500,      -4.40063
315.926,28.41667,      -4.43307
316.445,28.46833,      -4.46401
316.959,28.52000,      -4.49715
317.475,28.57167,      -4.52819
317.988,28.62333,      -4.56113
318.506,28.67500,      -4.59447
319.021,28.72667,      -4.62541
319.538,28.77833,      -4.65865
320.054,28.83000,      -4.69069
320.573,28.88167,      -4.72453
321.096,28.93333,      -4.75577
321.618,28.98500,      -4.78961
322.134,29.03667,      -4.82185
322.649,29.08833,      -4.85609
323.161,29.14000,      -4.89103
323.678,29.19167,      -4.92427
324.189,29.24333,      -4.95991
324.707,29.29500,      -4.99355
325.223,29.34667,      -5.02959
325.737,29.39833,      -5.06273
326.254,29.45000,      -5.09717
326.77,29.50167,      -5.13211
327.288,29.55333,      -5.16684
327.805,29.60500,      -5.20368
328.319,29.65667,      -5.23863
328.836,29.70833,      -5.27426
329.352,29.76000,      -5.30760
329.872,29.81167,      -5.34314
330.388,29.86333,      -5.37698
330.903,29.91500,      -5.41262
331.421,29.96667,      -5.44656
331.936,30.01833,      -5.48280
332.45,30.07000,      -5.51924
332.969,30.12167,      -5.55268
333.487,30.17333,      -5.58811
334,30.22500,      -5.62095
334.517,30.27667,      -5.65519
335.033,30.32833,      -5.68743
335.551,30.38000,      -5.72127
336.068,30.43167,      -5.75331
336.585,30.48333,      -5.78625
337.101,30.53500,      -5.81908
337.62,30.58667,      -5.84982
338.136,30.63833,      -5.88126
338.654,30.69000,      -5.91060
339.167,30.74167,      -5.94244
339.681,30.79333,      -5.97038
340.198,30.84500,      -6.00002
340.716,30.89667,      -6.02775
341.232,30.94833,      -6.05629
341.747,31.00000,      -6.08453
342.262,31.05167,      -6.10917
342.779,31.10333,      -6.13360
343.298,31.15500,      -6.15734
343.814,31.20667,      -6.18308
344.328,31.25833,      -6.20602
344.845,31.31000,      -6.23025
345.358,31.36167,      -6.25329
345.875,31.41333,      -6.27673
346.391,31.46500,      -6.29866
346.906,31.51667,      -6.31870
347.423,31.56833,      -6.34004
347.945,31.62000,      -6.35847
348.456,31.67167,      -6.37741
348.972,31.72333,      -6.39585
349.487,31.77500,      -6.41429
350.002,31.82667,      -6.43012
350.521,31.87833,      -6.44146
351.038,31.93000,      -6.45419
351.558,31.98167,      -6.47943
352.074,32.03333,      -6.49036
352.588,32.08500,      -6.50140
353.105,32.13667,      -6.51424
353.622,32.18833,      -6.53677
354.139,32.24000,      -6.54651
354.654,32.29167,      -6.55664
355.171,32.34333,      -6.56798
355.687,32.39500,      -6.58081
356.205,32.44667,      -6.59235
356.721,32.49833,      -6.60418
357.239,32.55000,      -6.61522
357.756,32.60167,      -6.62635
358.272,32.65333,      -6.63669
358.79,32.70500,      -6.64752
359.308,32.75667,      -6.65715
359.825,32.80833,      -6.66789
360.337,32.86000,      -6.67822
360.854,32.91167,      -6.68776
361.37,32.96333,      -6.69809
361.886,33.01500,      -6.70722
362.403,33.06667,      -6.71676
362.916,33.11833,      -6.72519
363.432,33.17000,      -6.73413
363.949,33.22167,      -6.74236
364.465,33.27333,      -6.75069
364.981,33.32500,      -6.75842
365.499,33.37667,      -6.76586
366.016,33.42833,      -6.77329
366.531,33.48000,      -6.77972
367.049,33.53167,      -6.78645
367.567,33.58333,      -6.79259
368.084,33.63500,      -6.79982
368.6,33.68667,      -6.80675
369.118,33.73833,      -6.81408
369.632,33.79000,      -6.82161
370.146,33.84167,      -6.82855
370.662,33.89333,      -6.83548
371.181,33.94500,      -6.84161
371.693,33.99667,      -6.84824
372.211,34.04833,      -6.85437
372.729,34.10000,      -6.86070
373.244,34.15167,      -6.86713
373.764,34.20333,      -6.87446
374.279,34.25500,      -6.88119
374.794,34.30667,      -6.88742
375.31,34.35833,      -6.89385
375.827,34.41000,      -6.89978
376.341,34.46167,      -6.90591
376.859,34.51333,      -6.91184
377.373,34.56500,      -6.91857
377.888,34.61667,      -6.92440
378.404,34.66833,      -6.93043
378.921,34.72000,      -6.93656
379.438,34.77167,      -6.94268
379.954,34.82333,      -6.94831
380.469,34.87500,      -6.95364
380.984,34.92667,      -6.96007
381.502,34.97833,      -6.96660
382.019,35.03000,      -6.97292
382.534,35.08167,      -6.97795
383.048,35.13333,      -6.98448
383.562,35.18500,      -6.99141
384.078,35.23667,      -6.99824
384.592,35.28833,      -7.00466
385.111,35.34000,      -7.00959
385.627,35.39167,      -7.01511
386.145,35.44333,      -7.02074
386.662,35.49500,      -7.02646
387.18,35.54667,      -7.03139
387.697,35.59833,      -7.03712
388.214,35.65000,      -7.04264
388.729,35.70167,      -7.04817
389.244,35.75333,      -7.05489
389.757,35.80500,      -7.06132
390.273,35.85667,      -7.06735
390.79,35.90833,      -7.07277
391.305,35.96000,      -7.07799
391.822,36.01167,      -7.08362
392.337,36.06333,      -7.08964
392.853,36.11500,      -7.09596
393.371,36.16667,      -7.10189
393.887,36.21833,      -7.10811
394.404,36.27000,      -7.11353
394.92,36.32167,      -7.11866
395.437,36.37333,      -7.12348
395.953,36.42500,      -7.12910
396.469,36.47667,      -7.13482
396.986,36.52833,      -7.14084
397.502,36.58000,      -7.14657
398.019,36.63167,      -7.15169
398.538,36.68333,      -7.15721
399.05,36.73500,      -7.16293
399.567,36.78667,      -7.16845
400.085,36.83833,      -7.17387
400.602,36.89000,      -7.17909
401.117,36.94167,      -7.18361
401.635,36.99333,      -7.18903
402.151,37.04500,      -7.19455
402.668,37.09667,      -7.20057
403.187,37.14833,      -7.20669
403.704,37.20000,      -7.21221
404.22,37.25167,      -7.21823
404.738,37.30333,      -7.22355
405.254,37.35500,      -7.22957
405.768,37.40667,      -7.23489
406.283,37.45833,      -7.24071
406.801,37.51000,      -7.24593
407.312,37.56167,      -7.25115
407.83,37.61333,      -7.25696
408.349,37.66500,      -7.26118
408.865,37.71667,      -7.26610
409.38,37.76833,      -7.27132
409.896,37.82000,      -7.27684
410.416,37.87167,      -7.28205
410.928,37.92333,      -7.28697
411.446,37.97500,      -7.29289
411.964,38.02667,      -7.29811
412.481,38.07833,      -7.30332
412.996,38.13000,      -7.30844
413.511,38.18167,      -7.31406
414.029,38.23333,      -7.31928
414.545,38.28500,      -7.32469
415.058,38.33667,      -7.32961
415.574,38.38833,      -7.33523
416.092,38.44000,      -7.34074
416.611,38.49167,      -7.34586
417.127,38.54333,      -7.35097
417.645,38.59500,      -7.35599
418.164,38.64667,      -7.36110
418.681,38.69833,      -7.36572
419.198,38.75000,      -7.37044
419.713,38.80167,      -7.37515
420.229,38.85333,      -7.37997
420.746,38.90500,      -7.38499
421.261,38.95667,      -7.38990
421.78,39.00833,      -7.39582
422.295,39.06000,      -7.40063
422.81,39.11167,      -7.40575
423.326,39.16333,      -7.41106
423.841,39.21500,      -7.41638
424.359,39.26667,      -7.42159
424.873,39.31833,      -7.42601
425.387,39.37000,      -7.43082
425.906,39.42167,      -7.43524
426.423,39.47333,      -7.44015
426.937,39.52500,      -7.44496
427.455,39.57667,      -7.44998
427.97,39.62833,      -7.45539
428.486,39.68000,      -7.46081
429.004,39.73167,      -7.46502
429.518,39.78333,      -7.46993
430.036,39.83500,      -7.47555
430.55,39.88667,      -7.48086
431.069,39.93833,      -7.48477
431.583,39.99000,      -7.48868
432.103,40.04167,      -7.49260
432.619,40.09333,      -7.49651
433.134,40.14500,      -7.50132
433.652,40.19667,      -7.50573
434.166,40.24833,      -7.51195
434.679,40.30000,      -7.51807
435.193,40.35167,      -7.52308
435.71,40.40333,      -7.52799
436.225,40.45500,      -7.53210
436.744,40.50667,      -7.53721
437.258,40.55833,      -7.54172
437.779,40.61000,      -7.54583
438.299,40.66167,      -7.54864
438.819,40.71333,      -7.55085
439.338,40.76500,      -7.55426
439.853,40.81667,      -7.55827
440.369,40.86833,      -7.56338
440.884,40.92000,      -7.56870
441.396,40.97167,      -7.57421
441.911,41.02333,      -7.57882
442.426,41.07500,      -7.58333
442.941,41.12667,      -7.58734
443.461,41.17833,      -7.59075
443.978,41.23000,      -7.59406
444.497,41.28167,      -7.59716
445.016,41.33333,      -7.60107
445.53,41.38500,      -7.60579
446.044,41.43667,      -7.61110
446.557,41.48833,      -7.61621
447.07,41.54000,      -7.62122
447.584,41.59167,      -7.62593
448.1,41.64333,      -7.62984
448.616,41.69500,      -7.63365
449.133,41.74667,      -7.63735
449.651,41.79833,      -7.64116
450.168,41.85000,      -7.64517
450.686,41.90167,      -7.64948
451.201,41.95333,      -7.65319
451.715,42.00500,      -7.65689
452.234,42.05667,      -7.66110
452.751,42.10833,      -7.66521
453.263,42.16000,      -7.66902
453.78,42.21167,      -7.67223
454.295,42.26333,      -7.67613
454.813,42.31500,      -7.68014
455.33,42.36667,      -7.68415
455.849,42.41833,      -7.68755
456.364,42.47000,      -7.69146
456.88,42.52167,      -7.69527
457.398,42.57333,      -7.69867
457.915,42.62500,      -7.70208
458.431,42.67667,      -7.70559
458.952,42.72833,      -7.70889
459.469,42.78000,      -7.71230
459.987,42.83167,      -7.71660
460.505,42.88333,      -7.72051
461.02,42.93500,      -7.72412
461.535,42.98667,      -7.72703
462.049,43.03833,      -7.72933
462.568,43.09000,      -7.73184
463.082,43.14167,      -7.73524
463.595,43.19333,      -7.73925
464.11,43.24500,      -7.74266
464.626,43.29667,      -7.74646
465.142,43.34833,      -7.74996
465.657,43.40000,      -7.75417
466.174,43.45167,      -7.75827
466.691,43.50333,      -7.76158
467.208,43.55500,      -7.76428
467.726,43.60667,      -7.76718
468.243,43.65833,      -7.77089
468.762,43.71000,      -7.77249
469.279,43.76167,      -7.77359
469.796,43.81333,      -7.77490
470.315,43.86500,      -7.77780
470.828,43.91667,      -7.78181
471.344,43.96833,      -7.78521
471.855,44.02000,      -7.78912
472.371,44.07167,      -7.79292
472.885,44.12333,      -7.79703
473.402,44.17500,      -7.80043
473.918,44.22667,      -7.80373
474.435,44.27833,      -7.80663
474.953,44.33000,      -7.80913
475.471,44.38167,      -7.81223
475.988,44.43333,      -7.81564
476.505,44.48500,      -7.81904
477.021,44.53667,      -7.82204
477.536,44.58833,      -7.82464
478.052,44.64000,      -7.82605
478.567,44.69167,      -7.82785
479.083,44.74333,      -7.83005
479.596,44.79500,      -7.83326
480.116,44.84667,      -7.83745
480.63,44.89833,      -7.84076
481.148,44.95000,      -7.84296
481.664,45.00167,      -7.84516
482.182,45.05333,      -7.84806
482.697,45.10500,      -7.84966
483.212,45.15667,      -7.85156
483.725,45.20833,      -7.85417
484.238,45.26000,      -7.85757
484.753,45.31167,      -7.86067
485.27,45.36333,      -7.86347
485.785,45.41500,      -7.86677
486.304,45.46667,      -7.86936
486.821,45.51833,      -7.87206
487.338,45.57000,      -7.87496
487.854,45.62167,      -7.87766
488.372,45.67333,      -7.87936
488.89,45.72500,      -7.88096
489.407,45.77667,      -7.88326
489.927,45.82833,      -7.88515
490.446,45.88000,      -7.88735
490.96,45.93167,      -7.88995
491.476,45.98333,      -7.89336
491.99,46.03500,      -7.89575
492.505,46.08667,      -7.89876
493.017,46.13833,      -7.90156
493.534,46.19000,      -7.90435
494.046,46.24167,      -7.90685
494.563,46.29333,      -7.90915
495.078,46.34500,      -7.91255
495.594,46.39667,      -7.91594
496.111,46.44833,      -7.91874
496.629,46.50000,      -7.91994
497.147,46.55167,      -7.92123
497.666,46.60333,      -7.92253
498.183,46.65500,      -7.92383
498.7,46.70667,      -7.92492
499.218,46.75833,      -7.92712
499.733,46.81000,      -7.93062
500.245,46.86167,      -7.93412
500.762,46.91333,      -7.93782
501.275,46.96500,      -7.94051
501.792,47.01667,      -7.94281
502.304,47.06833,      -7.94481
502.826,47.12000,      -7.94620
503.343,47.17167,      -7.94759
503.861,47.22333,      -7.94919
504.38,47.27500,      -7.95168
504.892,47.32667,      -7.95428
505.412,47.37833,      -7.95708
505.928,47.43000,      -7.95927
506.444,47.48167,      -7.96197
506.959,47.53333,      -7.96437
507.475,47.58500,      -7.96606
507.99,47.63667,      -7.96786
508.505,47.68833,      -7.96995
509.021,47.74000,      -7.97275
509.541,47.79167,      -7.97505
510.054,47.84333,      -7.97644
510.568,47.89500,      -7.97954
511.085,47.94667,      -7.98203
511.597,47.99833,      -7.98423
512.112,48.05000,      -7.98713
512.629,48.10167,      -7.99012
513.144,48.15333,      -7.99251
513.662,48.20500,      -7.99421
514.177,48.25667,      -7.99560
514.694,48.30833,      -7.99719
515.21,48.36000,      -7.99869
515.729,48.41167,      -8.00008
516.247,48.46333,      -8.00177
516.765,48.51500,      -8.00377
517.279,48.56667,      -8.00606
517.797,48.61833,      -8.00796
518.312,48.67000,      -8.00935
518.829,48.72167,      -8.01115
519.343,48.77333,      -8.01384
519.859,48.82500,      -8.01644
520.374,48.87667,      -8.01893
520.889,48.92833,      -8.02102
521.406,48.98000,      -8.02322
521.925,49.03167,      -8.02561
522.443,49.08333,      -8.02750
522.96,49.13500,      -8.02849
523.477,49.18667,      -8.02948
523.993,49.23833,      -8.03158
524.506,49.29000,      -8.03367
525.023,49.34167,      -8.03657
525.54,49.39333,      -8.03926
526.056,49.44500,      -8.04115
526.573,49.49667,      -8.04314
527.09,49.54833,      -8.04563
527.606,49.60000,      -8.04853
528.12,49.65167,      -8.05042
528.637,49.70333,      -8.05191
529.153,49.75500,      -8.05330
529.669,49.80667,      -8.05470
530.186,49.85833,      -8.05689
530.698,49.91000,      -8.05888
531.216,49.96167,      -8.06127
531.731,50.01333,      -8.06256
532.246,50.06500,      -8.06456
532.765,50.11667,      -8.06694
533.284,50.16833,      -8.06883
533.799,50.22000,      -8.07022
534.319,50.27167,      -8.07151
534.835,50.32333,      -8.07250
535.348,50.37500,      -8.07380
535.861,50.42667,      -8.07759
536.38,50.47833,      -8.08058
536.897,50.53000,      -8.08217
537.415,50.58167,      -8.08355
537.931,50.63333,      -8.08435
538.447,50.68500,      -8.08714
538.959,50.73667,      -8.09073
539.475,50.78833,      -8.09302
539.992,50.84000,      -8.09421
540.509,50.89167,      -8.09479
541.023,50.94333,      -8.09649
541.535,50.99500,      -8.10018
542.049,51.04667,      -8.10297
542.567,51.09833,      -8.10486
543.084,51.15000,      -8.10604
543.602,51.20167,      -8.10713
544.122,51.25333,      -8.10801
544.639,51.30500,      -8.10890
545.157,51.35667,      -8.10989
545.671,51.40833,      -8.11098
546.184,51.46000,      -8.11267
546.698,51.51167,      -8.11556
547.214,51.56333,      -8.11875
547.73,51.61500,      -8.12084
548.246,51.66667,      -8.12152
548.764,51.71833,      -8.12201
549.281,51.77000,      -8.12280
549.8,51.82167,      -8.12438
550.314,51.87333,      -8.12617
550.829,51.92500,      -8.12896
551.348,51.97667,      -8.13144
551.863,52.02833,      -8.13373
552.382,52.08000,      -8.13532
552.897,52.13167,      -8.13750
553.414,52.18333,      -8.13979
553.93,52.23500,      -8.14198
554.446,52.28667,      -8.14466
554.963,52.33833,      -8.14615
555.477,52.39000,      -8.14754
555.993,52.44167,      -8.14872
556.515,52.49333,      -8.14990
557.031,52.54500,      -8.15109
557.546,52.59667,      -8.15217
558.063,52.64833,      -8.15346
558.583,52.70000,      -8.15484
559.098,52.75167,      -8.15673
559.617,52.80333,      -8.15941
560.135,52.85500,      -8.16189
560.654,52.90667,      -8.16368
561.168,52.95833,      -8.16456
561.689,53.01000,      -8.16545
562.203,53.06167,      -8.16733
562.717,53.11333,      -8.16952
563.232,53.16500,      -8.17210
563.746,53.21667,      -8.17399
564.265,53.26833,      -8.17557
564.779,53.32000,      -8.17775
565.296,53.37167,      -8.17943
565.811,53.42333,      -8.18162
566.327,53.47500,      -8.18400
566.844,53.52667,      -8.18578
567.361,53.57833,      -8.18716
567.875,53.63000,      -8.18825
568.394,53.68167,      -8.18923
568.913,53.73333,      -8.19011
569.431,53.78500,      -8.19129
569.947,53.83667,      -8.19237
570.466,53.88833,      -8.19345
570.981,53.94000,      -8.19463
571.497,53.99167,      -8.19642
572.01,54.04333,      -8.19860
572.529,54.09500,      -8.20148
573.044,54.14667,      -8.20396
573.564,54.19833,      -8.20504
574.083,54.25000,      -8.20532
574.601,54.30167,      -8.20619
575.118,54.35333,      -8.20747
575.635,54.40500,      -8.20906
576.149,54.45667,      -8.21124
576.661,54.50833,      -8.21382
577.176,54.56000,      -8.21690
577.692,54.61167,      -8.21988
578.204,54.66333,      -8.22266
578.72,54.71500,      -8.22564
579.234,54.76667,      -8.22712
579.749,54.81833,      -8.22830
580.267,54.87000,      -8.22878
580.787,54.92167,      -8.22955
581.305,54.97333,      -8.23042
581.823,55.02500,      -8.23110
582.344,55.07667,      -8.23198
582.862,55.12833,      -8.23275
583.381,55.18000,      -8.23373
583.894,55.23167,      -8.23461
584.41,55.28333,      -8.23589
584.925,55.33500,      -8.23727
585.439,55.38667,      -8.23875
585.956,55.43833,      -8.24062
586.472,55.49000,      -8.24290
586.991,55.54167,      -8.24507
587.507,55.59333,      -8.24745
588.021,55.64500,      -8.24983
588.537,55.69667,      -8.25130
589.054,55.74833,      -8.25338
589.571,55.80000,      -8.25505
590.087,55.85167,      -8.25583
590.601,55.90333,      -8.25650
591.116,55.95500,      -8.25758
591.631,56.00667,      -8.25896
592.147,56.05833,      -8.26013
592.663,56.11000,      -8.26121
593.182,56.16167,      -8.26168
593.699,56.21333,      -8.26175
594.215,56.26500,      -8.26252
594.736,56.31667,      -8.26429
595.251,56.36833,      -8.26607
595.768,56.42000,      -8.26824
596.286,56.47167,      -8.26961
596.803,56.52333,      -8.27049
597.327,56.57500,      -8.27215
597.841,56.62667,      -8.27463
598.355,56.67833,      -8.27781
598.868,56.73000,      -8.28028
599.383,56.78167,      -8.28285
599.896,56.83333,      -8.28613
600.409,56.88500,      -8.28940
600.928,56.93667,      -8.29187
601.442,56.98833,      -8.29274
601.962,57.04000,      -8.29250
602.484,57.09167,      -8.29197
603.005,57.14333,      -8.29144
603.524,57.19500,      -8.29161
604.041,57.24667,      -8.29208
604.554,57.29833,      -8.29356
605.068,57.35000,      -8.29483
605.584,57.40167,      -8.29600
606.097,57.45333,      -8.29697
606.612,57.50500,      -8.29794
607.128,57.55667,      -8.29881
607.649,57.60833,      -8.29977
608.166,57.66000,      -8.30084
608.685,57.71167,      -8.30251
609.196,57.76333,      -8.30418
609.717,57.81500,      -8.30544
610.234,57.86667,      -8.30611
610.753,57.91833,      -8.30668
611.269,57.97000,      -8.30805
611.783,58.02167,      -8.31022
612.299,58.07333,      -8.31329
612.807,58.12500,      -8.31616
613.323,58.17667,      -8.31953
613.839,58.22833,      -8.32189
614.354,58.28000,      -8.32246
614.873,58.33167,      -8.32312
615.391,58.38333,      -8.32329
615.909,58.43500,      -8.32365
616.427,58.48667,      -8.32442
616.939,58.53833,      -8.32619
617.452,58.59000,      -8.32865
617.972,58.64167,      -8.33042
618.49,58.69333,      -8.33018
619.009,58.74500,      -8.33025
619.528,58.79667,      -8.33121
620.044,58.84833,      -8.33207
620.563,58.90000,      -8.33224
621.083,58.95167,      -8.33260
621.595,59.00333,      -8.33337
622.11,59.05500,      -8.33444
622.626,59.10667,      -8.33560
623.142,59.15833,      -8.33727
623.652,59.21000,      -8.33993
624.168,59.26167,      -8.34340
624.682,59.31333,      -8.34686
625.197,59.36500,      -8.34973
625.714,59.41667,      -8.35078
626.233,59.46833,      -8.35075
626.751,59.52000,      -8.35081
627.268,59.57167,      -8.35137
627.787,59.62333,      -8.35183
628.303,59.67500,      -8.35239
628.82,59.72667,      -8.35346
629.337,59.77833,      -8.35442
629.851,59.83000,      -8.35568
630.367,59.88167,      -8.35655
630.884,59.93333,      -8.35751
631.399,59.98500,      -8.35877
631.913,60.03667,      -8.36013
632.433,60.08833,      -8.36159
632.947,60.14000,      -8.36295
633.466,60.19167,      -8.36441
633.98,60.24333,      -8.36488
634.495,60.29500,      -8.36554
635.01,60.34667,      -8.36610
635.528,60.39833,      -8.36716
636.044,60.45000,      -8.36812
636.563,60.50167,      -8.36918
637.084,60.55333,      -8.37033
637.602,60.60500,      -8.37109
638.122,60.65667,      -8.37175
638.636,60.70833,      -8.37251
639.152,60.76000,      -8.37368
639.668,60.81167,      -8.37564
640.182,60.86333,      -8.37850
640.699,60.91500,      -8.38105
641.214,60.96667,      -8.38281
641.73,61.01833,      -8.38317
642.248,61.07000,      -8.38343
642.767,61.12167,      -8.38339
643.283,61.17333,      -8.38365
643.798,61.22500,      -8.38421
644.314,61.27667,      -8.38487
644.826,61.32833,      -8.38583
645.343,61.38000,      -8.38719
645.858,61.43167,      -8.38904
646.375,61.48333,      -8.39150
646.889,61.53500,      -8.39336
647.408,61.58667,      -8.39591
647.93,61.63833,      -8.39606
648.448,61.69000,      -8.39572
648.966,61.74167,      -8.39648
649.481,61.79333,      -8.39694
649.999,61.84500,      -8.39739
650.51,61.89667,      -8.39775
651.028,61.94833,      -8.39801
651.544,62.00000,      -8.39877
652.056,62.05167,      -8.39993
652.572,62.10333,      -8.40148
653.088,62.15500,      -8.40334
653.606,62.20667,      -8.40439
654.12,62.25833,      -8.40515
654.639,62.31000,      -8.40610
655.155,62.36167,      -8.40726
655.673,62.41333,      -8.40841
656.191,62.46500,      -8.40927
656.705,62.51667,      -8.41153
657.22,62.56833,      -8.41338
657.737,62.62000,      -8.41404
658.253,62.67167,      -8.41459
658.771,62.72333,      -8.41474
659.289,62.77500,      -8.41470
659.807,62.82667,      -8.41545
660.325,62.87833,      -8.41610
660.839,62.93000,      -8.41636
661.36,62.98167,      -8.41701
661.877,63.03333,      -8.41747
662.391,63.08500,      -8.41842
662.904,63.13667,      -8.42058
663.418,63.18833,      -8.42324
663.933,63.24000,      -8.42359
664.455,63.29167,      -8.42334
664.973,63.34333,      -8.42349
665.49,63.39500,      -8.42394
666.01,63.44667,      -8.42390
666.526,63.49833,      -8.42415
667.039,63.55000,      -8.42561
667.554,63.60167,      -8.42786
668.069,63.65333,      -8.42921
668.585,63.70500,      -8.42997
669.098,63.75667,      -8.43112
669.616,63.80833,      -8.43197
670.132,63.86000,      -8.43272
670.649,63.91167,      -8.43368
671.164,63.96333,      -8.43523
671.683,64.01500,      -8.43658
672.197,64.06667,      -8.43763
672.712,64.11833,      -8.43889
673.231,64.17000,      -8.43894
673.749,64.22167,      -8.43829
674.268,64.27333,      -8.43844
674.784,64.32500,      -8.43919
675.298,64.37667,      -8.44065
675.813,64.42833,      -8.44310
676.328,64.48000,      -8.44685
676.845,64.53167,      -8.44810
677.363,64.58333,      -8.44855
677.882,64.63500,      -8.44950
678.399,64.68667,      -8.45115
678.915,64.73833,      -8.45300
679.433,64.79000,      -8.45305
679.948,64.84167,      -8.45340
680.464,64.89333,      -8.45405
680.98,64.94500,      -8.45421
681.495,64.99667,      -8.45406
682.015,65.04833,      -8.45390
682.533,65.10000,      -8.45365
683.053,65.15167,      -8.45380
683.568,65.20333,      -8.45395
684.083,65.25500,      -8.45481
684.599,65.30667,      -8.45606
685.113,65.35833,      -8.45741
685.63,65.41000,      -8.45866
686.146,65.46167,      -8.45951
686.661,65.51333,      -8.46035
687.182,65.56500,      -8.46080
687.701,65.61667,      -8.46145
688.222,65.66833,      -8.46180
688.741,65.72000,      -8.46184
689.26,65.77167,      -8.46229
689.777,65.82333,      -8.46284
690.291,65.87500,      -8.46470
690.809,65.92667,      -8.46684
691.327,65.97833,      -8.46919
691.839,66.03000,      -8.47075
692.355,66.08167,      -8.47229
692.872,66.13333,      -8.47444
693.383,66.18500,      -8.47649
693.902,66.23667,      -8.47644
694.416,66.28833,      -8.47629
694.935,66.34000,      -8.47654
695.453,66.39167,      -8.47728
695.971,66.44333,      -8.47853
696.486,66.49500,      -8.47958
697.003,66.54667,      -8.48023
697.516,66.59833,      -8.48108
698.037,66.65000,      -8.48142
698.554,66.70167,      -8.48137
699.07,66.75333,      -8.48142
699.586,66.80500,      -8.48157
700.104,66.85667,      -8.48231
700.624,66.90833,      -8.48316
701.137,66.96000,      -8.48371
701.654,67.01167,      -8.48436
702.169,67.06333,      -8.48481
702.685,67.11500,      -8.48516
703.199,67.16667,      -8.48601
703.717,67.21833,      -8.48705
704.234,67.27000,      -8.48770
704.75,67.32167,      -8.48875
705.27,67.37333,      -8.48999
705.787,67.42500,      -8.49184
706.302,67.47667,      -8.49349
706.817,67.52833,      -8.49364
707.334,67.58000,      -8.49378
707.85,67.63167,      -8.49423
708.362,67.68333,      -8.49468
708.88,67.73500,      -8.49583
709.394,67.78667,      -8.49728
709.911,67.83833,      -8.49893
710.426,67.89000,      -8.50057
710.94,67.94167,      -8.50242
711.455,67.99333,      -8.50367
711.973,68.04500,      -8.50442
712.492,68.09667,      -8.50486
713.006,68.14833,      -8.50501
713.522,68.20000,      -8.50496
714.04,68.25167,      -8.50500
714.558,68.30333,      -8.50525
715.076,68.35500,      -8.50590
715.592,68.40667,      -8.50624
716.11,68.45833,      -8.50669
716.628,68.51000,      -8.50774
717.14,68.56167,      -8.50959
717.655,68.61333,      -8.51224
718.168,68.66500,      -8.51569
718.685,68.71667,      -8.51713
719.204,68.76833,      -8.51687
719.724,68.82000,      -8.51652
720.245,68.87167,      -8.51656
720.763,68.92333,      -8.51721
721.283,68.97500,      -8.51765
721.799,69.02667,      -8.51840
722.314,69.07833,      -8.51875
722.829,69.13000,      -8.51890
723.345,69.18167,      -8.51905
723.861,69.23333,      -8.51959
724.376,69.28500,      -8.52044
724.892,69.33667,      -8.52119
725.408,69.38833,      -8.52193
725.925,69.44000,      -8.52248
726.444,69.49167,      -8.52322
726.96,69.54333,      -8.52417
727.478,69.59500,      -8.52531
727.993,69.64667,      -8.52616
728.512,69.69833,      -8.52720
729.024,69.75000,      -8.52835
729.544,69.80167,      -8.52920
730.061,69.85333,      -8.52974
730.579,69.90500,      -8.52998
731.095,69.95667,      -8.53033
731.609,70.00833,      -8.53078
732.125,70.06000,      -8.53132
732.639,70.11167,      -8.53187
733.159,70.16333,      -8.53231
733.677,70.21500,      -8.53266
734.193,70.26667,      -8.53350
734.708,70.31833,      -8.53465
735.223,70.37000,      -8.53519
735.739,70.42167,      -8.53634
736.253,70.47333,      -8.53718
736.77,70.52500,      -8.53823
737.289,70.57667,      -8.53927
737.81,70.62833,      -8.53941
738.326,70.68000,      -8.53925
738.844,70.73167,      -8.53900
739.362,70.78333,      -8.53924
739.875,70.83500,      -8.53969
740.391,70.88667,      -8.54093
740.906,70.93833,      -8.54277
741.421,70.99000,      -8.54482
741.934,71.04167,      -8.54606
742.451,71.09333,      -8.54681
742.965,71.14500,      -8.54755
743.486,71.19667,      -8.54839
744.003,71.24833,      -8.54873
744.524,71.30000,      -8.54807
745.043,71.35167,      -8.54701
745.56,71.40333,      -8.54635
746.077,71.45500,      -8.54609
746.59,71.50667,      -8.54754
747.102,71.55833,      -8.55129
747.615,71.61000,      -8.55393
748.13,71.66167,      -8.55577
748.647,71.71333,      -8.55581
749.162,71.76500,      -8.55515
749.68,71.81667,      -8.55559
750.198,71.86833,      -8.55653
750.715,71.92000,      -8.55787
751.232,71.97167,      -8.56011
751.75,72.02333,      -8.56135
752.267,72.07500,      -8.56129
752.785,72.12667,      -8.56113
753.301,72.17833,      -8.56117
753.818,72.23000,      -8.56171
754.332,72.28167,      -8.56235
754.848,72.33333,      -8.56239
755.364,72.38500,      -8.56203
755.883,72.43667,      -8.56217
756.401,72.48833,      -8.56211
756.917,72.54000,      -8.56205
757.433,72.59167,      -8.56228
757.947,72.64333,      -8.56323
758.463,72.69500,      -8.56486
758.977,72.74667,      -8.56640
759.491,72.79833,      -8.56744
760.006,72.85000,      -8.56958
760.525,72.90167,      -8.57142
761.04,72.95333,      -8.57195
761.557,73.00500,      -8.57179
762.073,73.05667,      -8.57163
762.591,73.10833,      -8.57166
763.103,73.16000,      -8.57250
763.617,73.21167,      -8.57464
764.13,73.26333,      -8.57758
764.649,73.31500,      -8.57831
765.166,73.36667,      -8.57795
765.682,73.41833,      -8.57818
766.204,73.47000,      -8.57892
766.72,73.52167,      -8.57925
767.235,73.57333,      -8.57899
767.753,73.62500,      -8.57842
768.27,73.67667,      -8.57786
768.788,73.72833,      -8.57749
769.307,73.78000,      -8.57712
769.825,73.83167,      -8.57686
770.343,73.88333,      -8.57719
770.86,73.93500,      -8.57782
771.377,73.98667,      -8.57836
771.889,74.03833,      -8.57960
772.402,74.09000,      -8.58133
772.917,74.14167,      -8.58416
773.431,74.19333,      -8.58670
773.947,74.24500,      -8.58863
774.467,74.29667,      -8.58946
774.985,74.34833,      -8.59079
775.501,74.40000,      -8.59182
776.021,74.45167,      -8.59165
776.537,74.50333,      -8.59028
777.054,74.55500,      -8.58931
777.572,74.60667,      -8.58934
778.088,74.65833,      -8.58978
778.604,74.71000,      -8.58991
779.121,74.76167,      -8.59044
779.639,74.81333,      -8.59127
780.157,74.86500,      -8.59239
780.675,74.91667,      -8.59362
781.192,74.96833,      -8.59455
781.708,75.02000,      -8.59528
782.228,75.07167,      -8.59581
782.738,75.12333,      -8.59644
783.257,75.17500,      -8.59697
783.771,75.22667,      -8.59760
784.287,75.27833,      -8.59843
784.801,75.33000,      -8.59935
785.316,75.38167,      -8.59988
785.832,75.43333,      -8.60071
786.349,75.48500,      -8.60104
786.864,75.53667,      -8.60136
787.38,75.58833,      -8.60189
787.899,75.64000,      -8.60221
788.416,75.69167,      -8.60234
788.934,75.74333,      -8.60256
789.457,75.79500,      -8.60248
789.975,75.84667,      -8.60261
790.495,75.89833,      -8.60253
791.011,75.95000,      -8.60286
791.525,76.00167,      -8.60358
792.038,76.05333,      -8.60431
792.557,76.10500,      -8.60523
793.074,76.15667,      -8.60555
793.589,76.20833,      -8.60598
794.109,76.26000,      -8.60680
794.625,76.31167,      -8.60772
795.143,76.36333,      -8.60894
795.659,76.41500,      -8.61006
796.174,76.46667,      -8.61099
796.694,76.51833,      -8.61151
797.209,76.57000,      -8.61183
797.729,76.62167,      -8.61215
798.246,76.67333,      -8.61247
798.761,76.72500,      -8.61319
799.273,76.77667,      -8.61341
799.488,76.79833,      -8.61344