File: data-raw/TGA/K_TGA.csv
#EXPORTTYPE:                 ,DATA SINGLE
#FILE:                       ,K.ngb-st9
#FORMAT:                     ,NETZSCH5
#FTYPE:                      ,ANSI
#IDENTITY:                   ,Saras
#DECIMAL:                    ,POINT
#SEPARATOR:                  ,COMMA
#MTYPE:                      ,TG
#INSTRUMENT:                 ,NETZSCH TG 209F1 Libra
#PROJECT:                    ,IL
#DATE/TIME:                  ,20/03/2017 10:20:09 AM (UTC+11)
#CORR. FILE:                 ,
#TEMPCAL:                    ,TCALZERO.TCX
#LABORATORY:                 ,Capture Lab
#OPERATOR:                   ,NJN
#REMARK:                     ,Training run
#SAMPLE:                     ,K
#SAMPLE MASS /mg:            ,11.2596
#MATERIAL:                   ,zeolite
#TYPE OF CRUCIBLE:           ,Al2O3
#SAMPLE CRUCIBLE MASS /mg:   ,312.1269
#REFERENCE CRUCIBLE MASS /mg:,
#M.RANGE /mg:                ,2000
#CORR. CODE:                 ,090
#RANGE:                      ,32°C/10.0(K/min)/800°C
#SEGMENT:                    ,S1/1
#SEG. 1:                     ,32°C/10.0(K/min)/800°C

##Temp./°C,Time/min,Mass loss/mg
 31.96500, 0.00000,-2.133500e-003
 31.96400, 0.05167,-2.759489e-003
 32.02700, 0.10333,-3.527016e-003
 32.33300, 0.15500,-3.131519e-003
 32.70500, 0.20667,-1.868092e-003
 33.04900, 0.25833,-1.366859e-003
 33.40000, 0.31000,-1.672339e-003
 33.79400, 0.36167,-1.622951e-003
 34.23600, 0.41333,-1.730494e-003
 34.69900, 0.46500,-1.786814e-003
 35.19100, 0.51667,-2.015016e-003
 35.71000, 0.56833,-2.184599e-003
 36.25400, 0.62000,-2.437109e-003
 36.82300, 0.67167,-2.745070e-003
 37.40900, 0.72333,-3.163924e-003
 38.01200, 0.77500,-3.504092e-003
 38.63100, 0.82667,-4.315310e-003
 39.25800, 0.87833,-4.847856e-003
 39.89200, 0.93000,-5.497521e-003
 40.53300, 0.98167,-6.077868e-003
 41.17500, 1.03333,-6.781439e-003
 41.81800, 1.08500,-7.663712e-003
 42.45400, 1.13667,-8.520441e-003
 43.08300, 1.18833,-9.533005e-003
 43.71000, 1.24000,-1.085243e-002
 44.33200, 1.29167,-1.203507e-002
 44.93900, 1.34333,-1.313538e-002
 45.54300, 1.39500,-1.475241e-002
 46.13300, 1.44667,-1.673609e-002
 46.72000, 1.49833,-1.902556e-002
 47.29200, 1.55000,-2.088474e-002
 47.85800, 1.60167,-2.275230e-002
 48.41100, 1.65333,-2.471834e-002
 48.95800, 1.70500,-2.645980e-002
 49.49400, 1.75667,-2.844107e-002
 50.02700, 1.80833,-3.052324e-002
 50.55200, 1.86000,-3.262664e-002
 51.07000, 1.91167,-3.511800e-002
 51.57900, 1.96333,-3.732641e-002
 52.08800, 2.01500,-3.947007e-002
 52.59400, 2.06667,-4.182233e-002
 53.09400, 2.11833,-4.428369e-002
 53.59300, 2.17000,-4.676508e-002
 54.09100, 2.22167,-4.953743e-002
 54.58700, 2.27333,-5.182825e-002
 55.07700, 2.32500,-5.463880e-002
 55.58100, 2.37667,-5.760531e-002
 56.08000, 2.42833,-6.024663e-002
 56.57500, 2.48000,-6.297412e-002
 57.07500, 2.53167,-6.581776e-002
 57.57300, 2.58333,-6.876327e-002
 58.07800, 2.63500,-7.163589e-002
 58.58100, 2.68667,-7.507158e-002
 59.08700, 2.73833,-7.803812e-002
 59.59500, 2.79000,-8.152022e-002
 60.10300, 2.84167,-8.475986e-002
 60.61500, 2.89333,-8.793086e-002
 61.12800, 2.94500,-9.119010e-002
 61.64400, 2.99667,-9.405451e-002
 62.15800, 3.04833,-9.750567e-002
 62.67700, 3.10000,      -0.10066
 63.19500, 3.15167,      -0.10460
 63.71300, 3.20333,      -0.10824
 64.23200, 3.25500,      -0.11217
 64.75400, 3.30667,      -0.11562
 65.27300, 3.35833,      -0.11933
 65.79500, 3.41000,      -0.12328
 66.31700, 3.46167,      -0.12680
 66.83800, 3.51333,      -0.13072
 67.35700, 3.56500,      -0.13443
 67.87700, 3.61667,      -0.13824
 68.39800, 3.66833,      -0.14185
 68.91900, 3.72000,      -0.14587
 69.44200, 3.77167,      -0.14979
 69.96000, 3.82333,      -0.15350
 70.48200, 3.87500,      -0.15771
 71.00000, 3.92667,      -0.16171
 71.52200, 3.97833,      -0.16572
 72.04200, 4.03000,      -0.16932
 72.55800, 4.08167,      -0.17322
 73.08000, 4.13333,      -0.17674
 73.59600, 4.18500,      -0.18083
 74.11600, 4.23667,      -0.18483
 74.63500, 4.28833,      -0.18894
 75.15500, 4.34000,      -0.19285
 75.66800, 4.39167,      -0.19643
 76.18800, 4.44333,      -0.20074
 76.70700, 4.49500,      -0.20405
 77.21400, 4.54667,      -0.20829
 77.73100, 4.59833,      -0.21201
 78.24900, 4.65000,      -0.21583
 78.76700, 4.70167,      -0.21934
 79.28400, 4.75333,      -0.22293
 79.80000, 4.80500,      -0.22653
 80.31800, 4.85667,      -0.22994
 80.83500, 4.90833,      -0.23353
 81.35100, 4.96000,      -0.23693
 81.87000, 5.01167,      -0.24023
 82.38600, 5.06333,      -0.24352
 82.90300, 5.11500,      -0.24702
 83.42200, 5.16667,      -0.25005
 83.94100, 5.21833,      -0.25375
 84.45800, 5.27000,      -0.25693
 84.97600, 5.32167,      -0.25983
 85.49200, 5.37333,      -0.26291
 86.00900, 5.42500,      -0.26600
 86.53200, 5.47667,      -0.26932
 87.04600, 5.52833,      -0.27200
 87.56500, 5.58000,      -0.27500
 88.08500, 5.63167,      -0.27770
 88.60200, 5.68333,      -0.28089
 89.12200, 5.73500,      -0.28380
 89.63800, 5.78667,      -0.28628
 90.15600, 5.83833,      -0.28878
 90.67300, 5.89000,      -0.29097
 91.19100, 5.94167,      -0.29385
 91.70700, 5.99333,      -0.29633
 92.22500, 6.04500,      -0.29865
 92.74200, 6.09667,      -0.30083
 93.25900, 6.14833,      -0.30291
 93.77500, 6.20000,      -0.30531
 94.29400, 6.25167,      -0.30769
 94.81100, 6.30333,      -0.30990
 95.32900, 6.35500,      -0.31190
 95.85000, 6.40667,      -0.31369
 96.36900, 6.45833,      -0.31569
 96.88600, 6.51000,      -0.31758
 97.40600, 6.56167,      -0.31917
 97.92100, 6.61333,      -0.32115
 98.43800, 6.66500,      -0.32264
 98.95500, 6.71667,      -0.32424
 99.47300, 6.76833,      -0.32632
 99.99200, 6.82000,      -0.32831
100.504, 6.87167,      -0.33002
101.023, 6.92333,      -0.33154
101.539, 6.97500,      -0.33275
102.055, 7.02667,      -0.33376
102.57, 7.07833,      -0.33536
103.09, 7.13000,      -0.33678
103.602, 7.18167,      -0.33818
104.12, 7.23333,      -0.33960
104.635, 7.28500,      -0.34070
105.153, 7.33667,      -0.34191
105.673, 7.38833,      -0.34282
106.19, 7.44000,      -0.34392
106.702, 7.49167,      -0.34521
107.214, 7.54333,      -0.34639
107.733, 7.59500,      -0.34740
108.245, 7.64667,      -0.34859
108.763, 7.69833,      -0.34939
109.281, 7.75000,      -0.35030
109.799, 7.80167,      -0.35130
110.315, 7.85333,      -0.35219
110.828, 7.90500,      -0.35277
111.344, 7.95667,      -0.35366
111.864, 8.00833,      -0.35466
112.383, 8.06000,      -0.35536
112.9, 8.11167,      -0.35624
113.412, 8.16333,      -0.35711
113.927, 8.21500,      -0.35799
114.445, 8.26667,      -0.35877
114.961, 8.31833,      -0.35965
115.476, 8.37000,      -0.36054
115.993, 8.42167,      -0.36153
116.512, 8.47333,      -0.36251
117.026, 8.52500,      -0.36348
117.54, 8.57667,      -0.36434
118.061, 8.62833,      -0.36534
118.574, 8.68000,      -0.36630
119.09, 8.73167,      -0.36707
119.606, 8.78333,      -0.36795
120.124, 8.83500,      -0.36853
120.638, 8.88667,      -0.36929
121.161, 8.93833,      -0.37017
121.674, 8.99000,      -0.37094
122.192, 9.04167,      -0.37190
122.706, 9.09333,      -0.37267
123.224, 9.14500,      -0.37353
123.74, 9.19667,      -0.37450
124.254, 9.24833,      -0.37516
124.768, 9.30000,      -0.37622
125.288, 9.35167,      -0.37709
125.806, 9.40333,      -0.37796
126.317, 9.45500,      -0.37860
126.832, 9.50667,      -0.37947
127.35, 9.55833,      -0.38032
127.862, 9.61000,      -0.38088
128.384, 9.66167,      -0.38166
128.901, 9.71333,      -0.38242
129.419, 9.76500,      -0.38338
129.938, 9.81667,      -0.38433
130.455, 9.86833,      -0.38508
130.972, 9.92000,      -0.38594
131.492, 9.97167,      -0.38669
132.009,10.02333,      -0.38744
132.527,10.07500,      -0.38839
133.045,10.12667,      -0.38944
133.562,10.17833,      -0.39039
134.077,10.23000,      -0.39133
134.595,10.28167,      -0.39228
135.112,10.33333,      -0.39323
135.633,10.38500,      -0.39418
136.147,10.43667,      -0.39522
136.667,10.48833,      -0.39607
137.182,10.54000,      -0.39692
137.7,10.59167,      -0.39786
138.219,10.64333,      -0.39881
138.735,10.69500,      -0.40014
139.249,10.74667,      -0.40118
139.768,10.79833,      -0.40263
140.287,10.85000,      -0.40398
140.802,10.90167,      -0.40511
141.319,10.95333,      -0.40615
141.838,11.00500,      -0.40749
142.35,11.05667,      -0.40892
142.868,11.10833,      -0.41036
143.383,11.16000,      -0.41180
143.898,11.21167,      -0.41364
144.416,11.26333,      -0.41547
144.931,11.31500,      -0.41711
145.449,11.36667,      -0.41915
145.968,11.41833,      -0.42109
146.483,11.47000,      -0.42272
147,11.52167,      -0.42426
147.514,11.57333,      -0.42619
148.03,11.62500,      -0.42812
148.549,11.67667,      -0.42996
149.064,11.72833,      -0.43159
149.58,11.78000,      -0.43313
150.098,11.83167,      -0.43546
150.613,11.88333,      -0.43779
151.133,11.93500,      -0.44013
151.651,11.98667,      -0.44266
152.167,12.03833,      -0.44459
152.681,12.09000,      -0.44701
153.197,12.14167,      -0.44935
153.714,12.19333,      -0.45178
154.231,12.24500,      -0.45371
154.753,12.29667,      -0.45575
155.268,12.34833,      -0.45818
155.786,12.40000,      -0.46060
156.305,12.45167,      -0.46303
156.822,12.50333,      -0.46536
157.336,12.55500,      -0.46788
157.85,12.60667,      -0.47000
158.365,12.65833,      -0.47243
158.883,12.71000,      -0.47506
159.401,12.76167,      -0.47809
159.916,12.81333,      -0.48061
160.432,12.86500,      -0.48344
160.949,12.91667,      -0.48637
161.463,12.96833,      -0.48890
161.978,13.02000,      -0.49133
162.495,13.07167,      -0.49415
163.016,13.12333,      -0.49679
163.532,13.17500,      -0.49921
164.048,13.22667,      -0.50214
164.566,13.27833,      -0.50507
165.083,13.33000,      -0.50789
165.598,13.38167,      -0.51041
166.117,13.43333,      -0.51355
166.631,13.48500,      -0.51646
167.149,13.53667,      -0.51900
167.665,13.58833,      -0.52182
168.182,13.64000,      -0.52445
168.699,13.69167,      -0.52767
169.215,13.74333,      -0.53040
169.733,13.79500,      -0.53353
170.249,13.84667,      -0.53645
170.77,13.89833,      -0.53949
171.288,13.95000,      -0.54281
171.804,14.00167,      -0.54543
172.322,14.05333,      -0.54846
172.84,14.10500,      -0.55119
173.358,14.15667,      -0.55431
173.873,14.20833,      -0.55704
174.389,14.26000,      -0.55997
174.909,14.31167,      -0.56299
175.422,14.36333,      -0.56591
175.935,14.41500,      -0.56934
176.449,14.46667,      -0.57256
176.967,14.51833,      -0.57579
177.483,14.57000,      -0.57892
177.999,14.62167,      -0.58195
178.516,14.67333,      -0.58508
179.033,14.72500,      -0.58871
179.55,14.77667,      -0.59194
180.067,14.82833,      -0.59527
180.587,14.88000,      -0.59860
181.1,14.93167,      -0.60173
181.619,14.98333,      -0.60536
182.135,15.03500,      -0.60858
182.653,15.08667,      -0.61202
183.17,15.13833,      -0.61535
183.686,15.19000,      -0.61868
184.203,15.24167,      -0.62181
184.724,15.29333,      -0.62565
185.238,15.34500,      -0.62947
185.756,15.39667,      -0.63300
186.272,15.44833,      -0.63694
186.791,15.50000,      -0.64027
187.307,15.55167,      -0.64390
187.824,15.60333,      -0.64733
188.339,15.65500,      -0.65106
188.854,15.70667,      -0.65460
189.371,15.75833,      -0.65863
189.888,15.81000,      -0.66277
190.403,15.86167,      -0.66640
190.92,15.91333,      -0.67024
191.437,15.96500,      -0.67388
191.955,16.01667,      -0.67762
192.471,16.06833,      -0.68145
192.987,16.12000,      -0.68549
193.504,16.17167,      -0.68843
194.019,16.22333,      -0.69226
194.536,16.27500,      -0.69601
195.053,16.32667,      -0.70065
195.568,16.37833,      -0.70469
196.085,16.43000,      -0.70853
196.604,16.48167,      -0.71257
197.122,16.53333,      -0.71621
197.637,16.58500,      -0.72035
198.151,16.63667,      -0.72410
198.668,16.68833,      -0.72824
199.187,16.74000,      -0.73228
199.702,16.79167,      -0.73613
200.222,16.84333,      -0.74058
200.74,16.89500,      -0.74472
201.257,16.94667,      -0.74917
201.771,16.99833,      -0.75301
202.292,17.05000,      -0.75656
202.805,17.10167,      -0.76081
203.323,17.15333,      -0.76505
203.84,17.20500,      -0.76950
204.358,17.25667,      -0.77345
204.872,17.30833,      -0.77809
205.386,17.36000,      -0.78233
205.906,17.41167,      -0.78669
206.421,17.46333,      -0.79093
206.937,17.51500,      -0.79518
207.458,17.56667,      -0.79933
207.975,17.61833,      -0.80398
208.493,17.67000,      -0.80873
209.011,17.72167,      -0.81297
209.526,17.77333,      -0.81742
210.042,17.82500,      -0.82187
210.557,17.87667,      -0.82712
211.075,17.92833,      -0.83157
211.594,17.98000,      -0.83622
212.11,18.03167,      -0.84057
212.629,18.08333,      -0.84552
213.142,18.13500,      -0.85036
213.659,18.18667,      -0.85521
214.174,18.23833,      -0.86046
214.693,18.29000,      -0.86511
215.207,18.34167,      -0.87036
215.725,18.39333,      -0.87521
216.239,18.44500,      -0.88066
216.758,18.49667,      -0.88551
217.276,18.54833,      -0.89106
217.793,18.60000,      -0.89641
218.307,18.65167,      -0.90176
218.825,18.70333,      -0.90741
219.342,18.75500,      -0.91246
219.857,18.80667,      -0.91831
220.37,18.85833,      -0.92336
220.889,18.91000,      -0.93051
221.408,18.96167,      -0.93606
221.923,19.01333,      -0.94221
222.439,19.06500,      -0.94856
222.957,19.11667,      -0.95481
223.47,19.16833,      -0.96136
223.986,19.22000,      -0.96731
224.502,19.27167,      -0.97416
225.017,19.32333,      -0.98061
225.536,19.37500,      -0.98737
226.055,19.42667,      -0.99402
226.571,19.47833,      -1.00147
227.088,19.53000,      -1.00842
227.603,19.58167,      -1.01597
228.121,19.63333,      -1.02362
228.637,19.68500,      -1.03097
229.154,19.73667,      -1.03923
229.67,19.78833,      -1.04678
230.187,19.84000,      -1.05493
230.703,19.89167,      -1.06308
231.219,19.94333,      -1.07153
231.736,19.99500,      -1.07948
232.254,20.04667,      -1.08804
232.769,20.09833,      -1.09749
233.285,20.15000,      -1.10654
233.8,20.20167,      -1.11599
234.319,20.25333,      -1.12534
234.834,20.30500,      -1.13500
235.348,20.35667,      -1.14465
235.867,20.40833,      -1.15470
236.381,20.46000,      -1.16455
236.902,20.51167,      -1.17550
237.419,20.56333,      -1.18666
237.936,20.61500,      -1.19701
238.451,20.66667,      -1.20836
238.97,20.71833,      -1.21911
239.484,20.77000,      -1.23106
239.999,20.82167,      -1.24202
240.516,20.87333,      -1.25437
241.035,20.92500,      -1.26612
241.552,20.97667,      -1.27907
242.067,21.02833,      -1.29213
242.584,21.08000,      -1.30418
243.1,21.13167,      -1.31773
243.614,21.18333,      -1.33068
244.131,21.23500,      -1.35653
244.647,21.28667,      -1.36599
245.163,21.33833,      -1.37824
245.683,21.39000,      -1.39019
246.198,21.44167,      -1.41324
246.716,21.49333,      -1.42460
247.233,21.54500,      -1.43625
247.751,21.59667,      -1.46210
248.268,21.64833,      -1.47175
248.787,21.70000,      -1.48411
249.303,21.75167,      -1.49646
249.821,21.80333,      -1.52241
250.336,21.85500,      -1.53376
250.853,21.90667,      -1.55781
251.369,21.95833,      -1.57496
251.884,22.01000,      -1.59122
252.401,22.06167,      -1.60877
252.918,22.11333,      -1.62522
253.435,22.16500,      -1.64247
253.949,22.21667,      -1.66012
254.469,22.26833,      -1.67857
254.982,22.32000,      -1.69563
255.496,22.37167,      -1.71438
256.013,22.42333,      -1.73333
256.527,22.47500,      -1.75088
257.045,22.52667,      -1.76923
257.559,22.57833,      -1.78768
258.074,22.63000,      -1.80673
258.591,22.68167,      -1.82459
259.108,22.73333,      -1.84414
259.623,22.78500,      -1.86289
260.144,22.83667,      -1.88234
260.659,22.88833,      -1.90179
261.173,22.94000,      -1.92054
261.691,22.99167,      -1.94049
262.208,23.04333,      -1.95875
262.724,23.09500,      -1.97880
263.24,23.14667,      -1.99785
263.758,23.19833,      -2.01780
264.278,23.25000,      -2.03565
264.796,23.30167,      -2.05560
265.313,23.35333,      -2.07415
265.83,23.40500,      -2.09410
266.346,23.45667,      -2.11345
266.859,23.50833,      -2.13230
267.376,23.56000,      -2.15235
267.891,23.61167,      -2.17120
268.407,23.66333,      -2.19075
268.92,23.71500,      -2.20950
269.437,23.76667,      -2.22915
269.951,23.81833,      -2.24940
270.468,23.87000,      -2.26805
270.981,23.92167,      -2.28810
271.499,23.97333,      -2.30685
272.016,24.02500,      -2.32649
272.53,24.07667,      -2.34444
273.046,24.12833,      -2.36409
273.561,24.18000,      -2.38334
274.08,24.23167,      -2.40319
274.597,24.28333,      -2.42164
275.117,24.33500,      -2.44119
275.636,24.38667,      -2.46114
276.152,24.43833,      -2.47958
276.673,24.49000,      -2.49933
277.187,24.54167,      -2.51718
277.704,24.59333,      -2.53723
278.22,24.64500,      -2.55617
278.736,24.69667,      -2.57532
279.254,24.74833,      -2.59367
279.77,24.80000,      -2.61302
280.288,24.85167,      -2.63336
280.804,24.90333,      -2.65161
281.321,24.95500,      -2.67126
281.837,25.00667,      -2.68980
282.354,25.05833,      -2.70995
282.871,25.11000,      -2.72860
283.389,25.16167,      -2.74814
283.906,25.21333,      -2.76699
284.42,25.26500,      -2.78663
284.936,25.31667,      -2.80668
285.453,25.36833,      -2.82493
285.968,25.42000,      -2.84507
286.487,25.47167,      -2.86382
287.007,25.52333,      -2.88436
287.522,25.57500,      -2.90361
288.037,25.62667,      -2.92415
288.553,25.67833,      -2.94320
289.068,25.73000,      -2.96374
289.585,25.78167,      -2.98408
290.105,25.83333,      -3.00443
290.623,25.88500,      -3.02507
291.136,25.93667,      -3.04492
291.652,25.98833,      -3.06616
292.167,26.04000,      -3.08660
292.687,26.09167,      -3.10774
293.203,26.14333,      -3.12869
293.717,26.19500,      -3.15073
294.233,26.24667,      -3.17307
294.752,26.29833,      -3.19361
295.265,26.35000,      -3.21676
295.781,26.40167,      -3.23850
296.298,26.45333,      -3.26144
296.815,26.50500,      -3.28358
297.332,26.55667,      -3.30732
297.852,26.60833,      -3.32996
298.368,26.66000,      -3.35420
298.887,26.71167,      -3.37864
299.402,26.76333,      -3.40239
299.918,26.81500,      -3.42773
300.433,26.86667,      -3.45187
300.949,26.91833,      -3.47811
301.467,26.97000,      -3.50285
301.98,27.02167,      -3.52979
302.496,27.07333,      -3.55573
303.011,27.12500,      -3.58387
303.526,27.17667,      -3.61191
304.046,27.22833,      -3.63905
304.563,27.28000,      -3.66799
305.078,27.33167,      -3.69623
305.595,27.38333,      -3.72657
306.112,27.43500,      -3.75511
306.63,27.48667,      -3.78745
307.146,27.53833,      -3.81749
307.663,27.59000,      -3.85013
308.179,27.64167,      -3.88437
308.692,27.69333,      -3.91621
309.209,27.74500,      -3.95075
309.722,27.79667,      -3.98339
310.241,27.84833,      -4.01953
310.756,27.90000,      -4.05367
311.272,27.95167,      -4.09101
311.792,28.00333,      -4.12665
312.307,28.05500,      -4.16579
312.823,28.10667,      -4.20473
313.345,28.15833,      -4.24227
313.861,28.21000,      -4.28261
314.377,28.26167,      -4.32125
314.896,28.31333,      -4.36269
315.41,28.36500,      -4.40263
315.93,28.41667,      -4.44537
316.447,28.46833,      -4.48591
316.966,28.52000,      -4.52935
317.483,28.57167,      -4.57319
318,28.62333,      -4.61433
318.517,28.67500,      -4.65867
319.037,28.72667,      -4.69981
319.553,28.77833,      -4.74315
320.073,28.83000,      -4.78469
320.591,28.88167,      -4.82893
321.104,28.93333,      -4.86987
321.62,28.98500,      -4.91341
322.135,29.03667,      -4.95375
322.651,29.08833,      -4.99619
323.171,29.14000,      -5.03773
323.689,29.19167,      -5.07657
324.202,29.24333,      -5.11651
324.714,29.29500,      -5.15405
325.228,29.34667,      -5.19199
325.742,29.39833,      -5.22693
326.259,29.45000,      -5.26337
326.776,29.50167,      -5.29671
327.289,29.55333,      -5.33085
327.806,29.60500,      -5.36499
328.323,29.65667,      -5.39522
328.843,29.70833,      -5.42556
329.36,29.76000,      -5.45430
329.875,29.81167,      -5.48334
330.389,29.86333,      -5.50978
330.905,29.91500,      -5.53682
331.42,29.96667,      -5.56176
331.934,30.01833,      -5.58680
332.452,30.07000,      -5.61104
332.968,30.12167,      -5.63318
333.483,30.17333,      -5.65552
333.997,30.22500,      -5.67596
334.512,30.27667,      -5.69749
335.03,30.32833,      -5.71673
335.543,30.38000,      -5.73627
336.061,30.43167,      -5.75601
336.576,30.48333,      -5.77255
337.092,30.53500,      -5.79049
337.605,30.58667,      -5.80713
338.121,30.63833,      -5.82406
338.637,30.69000,      -5.83570
339.156,30.74167,      -5.84784
339.673,30.79333,      -5.85978
340.191,30.84500,      -5.88601
340.708,30.89667,      -5.89505
341.224,30.94833,      -5.90589
341.743,31.00000,      -5.91783
342.257,31.05167,      -5.93007
342.774,31.10333,      -5.95130
343.289,31.15500,      -5.96274
343.804,31.20667,      -5.97228
344.32,31.25833,      -5.98232
344.839,31.31000,      -5.99365
345.356,31.36167,      -6.00509
345.871,31.41333,      -6.01683
346.388,31.46500,      -6.02786
346.908,31.51667,      -6.03870
347.425,31.56833,      -6.04924
347.94,31.62000,      -6.05917
348.459,31.67167,      -6.06951
348.975,31.72333,      -6.07905
349.492,31.77500,      -6.08938
350.008,31.82667,      -6.09882
350.523,31.87833,      -6.10876
351.041,31.93000,      -6.11819
351.554,31.98167,      -6.12683
352.07,32.03333,      -6.13587
352.588,32.08500,      -6.14410
353.105,32.13667,      -6.15304
353.621,32.18833,      -6.16137
354.14,32.24000,      -6.17001
354.656,32.29167,      -6.17794
355.172,32.34333,      -6.18578
355.688,32.39500,      -6.19421
356.205,32.44667,      -6.20175
356.719,32.49833,      -6.20968
357.237,32.55000,      -6.21702
357.752,32.60167,      -6.22455
358.273,32.65333,      -6.23209
358.786,32.70500,      -6.23942
359.305,32.75667,      -6.24595
359.821,32.80833,      -6.25329
360.335,32.86000,      -6.26053
360.85,32.91167,      -6.26726
361.368,32.96333,      -6.27459
361.887,33.01500,      -6.28112
362.404,33.06667,      -6.28846
362.919,33.11833,      -6.29489
363.436,33.17000,      -6.30183
363.95,33.22167,      -6.30816
364.47,33.27333,      -6.31519
364.987,33.32500,      -6.32192
365.5,33.37667,      -6.32816
366.016,33.42833,      -6.33499
366.532,33.48000,      -6.34102
367.049,33.53167,      -6.34776
367.564,33.58333,      -6.35389
368.081,33.63500,      -6.36032
368.595,33.68667,      -6.36645
369.113,33.73833,      -6.37198
369.628,33.79000,      -6.37862
370.145,33.84167,      -6.38455
370.661,33.89333,      -6.39118
371.177,33.94500,      -6.39721
371.692,33.99667,      -6.40314
372.212,34.04833,      -6.40867
372.725,34.10000,      -6.41550
373.241,34.15167,      -6.42143
373.756,34.20333,      -6.42756
374.274,34.25500,      -6.43349
374.788,34.30667,      -6.43912
375.306,34.35833,      -6.44505
375.821,34.41000,      -6.45098
376.339,34.46167,      -6.45711
376.856,34.51333,      -6.46284
377.373,34.56500,      -6.46757
377.892,34.61667,      -6.47300
378.411,34.66833,      -6.48072
378.93,34.72000,      -6.48685
379.444,34.77167,      -6.49208
379.962,34.82333,      -6.49801
380.477,34.87500,      -6.50314
380.989,34.92667,      -6.50897
381.508,34.97833,      -6.51430
382.019,35.03000,      -6.52023
382.538,35.08167,      -6.52565
383.054,35.13333,      -6.53118
383.568,35.18500,      -6.53691
384.085,35.23667,      -6.54243
384.602,35.28833,      -6.54796
385.117,35.34000,      -6.55319
385.637,35.39167,      -6.55881
386.151,35.44333,      -6.56434
386.667,35.49500,      -6.57017
387.183,35.54667,      -6.57549
387.7,35.59833,      -6.58132
388.214,35.65000,      -6.58644
388.731,35.70167,      -6.59187
389.248,35.75333,      -6.59719
389.762,35.80500,      -6.60222
390.28,35.85667,      -6.60774
390.799,35.90833,      -6.61296
391.316,35.96000,      -6.61859
391.835,36.01167,      -6.62371
392.354,36.06333,      -6.62913
392.873,36.11500,      -6.63506
393.391,36.16667,      -6.63998
393.91,36.21833,      -6.64510
394.427,36.27000,      -6.64993
394.939,36.32167,      -6.65525
395.453,36.37333,      -6.66018
395.966,36.42500,      -6.66530
396.483,36.47667,      -6.67032
396.996,36.52833,      -6.67575
397.512,36.58000,      -6.68137
398.026,36.63167,      -6.68629
398.544,36.68333,      -6.69141
399.059,36.73500,      -6.69643
399.573,36.78667,      -6.70165
400.089,36.83833,      -6.70697
400.604,36.89000,      -6.71209
401.119,36.94167,      -6.71701
401.637,36.99333,      -6.72223
402.153,37.04500,      -6.72695
402.669,37.09667,      -6.73227
403.183,37.14833,      -6.73719
403.702,37.20000,      -6.74211
404.215,37.25167,      -6.74733
404.73,37.30333,      -6.75195
405.248,37.35500,      -6.75727
405.763,37.40667,      -6.76209
406.28,37.45833,      -6.76731
406.796,37.51000,      -6.77213
407.315,37.56167,      -6.77694
407.831,37.61333,      -6.78206
408.349,37.66500,      -6.78668
408.866,37.71667,      -6.79180
409.379,37.76833,      -6.79652
409.897,37.82000,      -6.80194
410.414,37.87167,      -6.80645
410.928,37.92333,      -6.81137
411.449,37.97500,      -6.81619
411.966,38.02667,      -6.82090
412.48,38.07833,      -6.82612
413.001,38.13000,      -6.83074
413.516,38.18167,      -6.83556
414.034,38.23333,      -6.84047
414.548,38.28500,      -6.84539
415.066,38.33667,      -6.84991
415.583,38.38833,      -6.85463
416.098,38.44000,      -6.85914
416.613,38.49167,      -6.86416
417.133,38.54333,      -6.86857
417.649,38.59500,      -6.87289
418.164,38.64667,      -6.87781
418.682,38.69833,      -6.88222
419.197,38.75000,      -6.88714
419.714,38.80167,      -6.89165
420.228,38.85333,      -6.89657
420.745,38.90500,      -6.90099
421.26,38.95667,      -6.90580
421.775,39.00833,      -6.91022
422.291,39.06000,      -6.91453
422.808,39.11167,      -6.91915
423.325,39.16333,      -6.92326
423.841,39.21500,      -6.92778
424.356,39.26667,      -6.93209
424.869,39.31833,      -6.93631
425.389,39.37000,      -6.94102
425.906,39.42167,      -6.94564
426.424,39.47333,      -6.95035
426.939,39.52500,      -6.95466
427.46,39.57667,      -6.95917
427.973,39.62833,      -6.96349
428.491,39.68000,      -6.96810
429.006,39.73167,      -6.97242
429.52,39.78333,      -6.97703
430.034,39.83500,      -6.98135
430.551,39.88667,      -6.98566
431.068,39.93833,      -6.98977
431.586,39.99000,      -6.99408
432.103,40.04167,      -6.99839
432.621,40.09333,      -7.00251
433.138,40.14500,      -7.00682
433.652,40.19667,      -7.01074
434.169,40.24833,      -7.01505
434.684,40.30000,      -7.01886
435.198,40.35167,      -7.02327
435.718,40.40333,      -7.02778
436.233,40.45500,      -7.03180
436.75,40.50667,      -7.03621
437.263,40.55833,      -7.04022
437.782,40.61000,      -7.04453
438.297,40.66167,      -7.04834
438.812,40.71333,      -7.05245
439.332,40.76500,      -7.05636
439.846,40.81667,      -7.06027
440.367,40.86833,      -7.06438
440.882,40.92000,      -7.06830
441.396,40.97167,      -7.07241
441.913,41.02333,      -7.07632
442.429,41.07500,      -7.08033
442.945,41.12667,      -7.08414
443.463,41.17833,      -7.08835
443.981,41.23000,      -7.09196
444.493,41.28167,      -7.09597
445.012,41.33333,      -7.09978
445.53,41.38500,      -7.10319
446.044,41.43667,      -7.10720
446.562,41.48833,      -7.11090
447.08,41.54000,      -7.11481
447.596,41.59167,      -7.11862
448.111,41.64333,      -7.12233
448.628,41.69500,      -7.12574
449.143,41.74667,      -7.12945
449.659,41.79833,      -7.13336
450.176,41.85000,      -7.13687
450.691,41.90167,      -7.14058
451.205,41.95333,      -7.14379
451.726,42.00500,      -7.14749
452.242,42.05667,      -7.15100
452.756,42.10833,      -7.15451
453.271,42.16000,      -7.15772
453.785,42.21167,      -7.16133
454.304,42.26333,      -7.16513
454.82,42.31500,      -7.16844
455.337,42.36667,      -7.17175
455.856,42.41833,      -7.17515
456.373,42.47000,      -7.17826
456.887,42.52167,      -7.18157
457.403,42.57333,      -7.18497
457.92,42.62500,      -7.18808
458.431,42.67667,      -7.19149
458.948,42.72833,      -7.19510
459.466,42.78000,      -7.19850
459.982,42.83167,      -7.20171
460.502,42.88333,      -7.20491
461.018,42.93500,      -7.20822
461.536,42.98667,      -7.21112
462.052,43.03833,      -7.21423
462.568,43.09000,      -7.21764
463.086,43.14167,      -7.22064
463.602,43.19333,      -7.22394
464.118,43.24500,      -7.22695
464.631,43.29667,      -7.23006
465.149,43.34833,      -7.23316
465.666,43.40000,      -7.23597
466.18,43.45167,      -7.23857
466.696,43.50333,      -7.24188
467.212,43.55500,      -7.24478
467.731,43.60667,      -7.24768
468.244,43.65833,      -7.25089
468.759,43.71000,      -7.25380
469.274,43.76167,      -7.25650
469.791,43.81333,      -7.25940
470.31,43.86500,      -7.26260
470.826,43.91667,      -7.26551
471.342,43.96833,      -7.26831
471.863,44.02000,      -7.27071
472.377,44.07167,      -7.27332
472.897,44.12333,      -7.27602
473.417,44.17500,      -7.27902
473.934,44.22667,      -7.28162
474.447,44.27833,      -7.28443
474.963,44.33000,      -7.28723
475.479,44.38167,      -7.29003
475.996,44.43333,      -7.29304
476.514,44.48500,      -7.29514
477.026,44.53667,      -7.29744
477.539,44.58833,      -7.30035
478.057,44.64000,      -7.30285
478.574,44.69167,      -7.30555
479.089,44.74333,      -7.30815
479.606,44.79500,      -7.31055
480.121,44.84667,      -7.31295
480.639,44.89833,      -7.31555
481.159,44.95000,      -7.31795
481.676,45.00167,      -7.32015
482.19,45.05333,      -7.32285
482.707,45.10500,      -7.32546
483.219,45.15667,      -7.32786
483.735,45.20833,      -7.33046
484.252,45.26000,      -7.33296
484.767,45.31167,      -7.33506
485.282,45.36333,      -7.33746
485.798,45.41500,      -7.33986
486.317,45.46667,      -7.34196
486.836,45.51833,      -7.34436
487.351,45.57000,      -7.34686
487.87,45.62167,      -7.34926
488.386,45.67333,      -7.35086
488.903,45.72500,      -7.35316
489.419,45.77667,      -7.35506
489.936,45.82833,      -7.35736
490.451,45.88000,      -7.35946
490.967,45.93167,      -7.36225
491.482,45.98333,      -7.36475
492.001,46.03500,      -7.36695
492.516,46.08667,      -7.36885
493.032,46.13833,      -7.37085
493.546,46.19000,      -7.37315
494.062,46.24167,      -7.37525
494.58,46.29333,      -7.37754
495.097,46.34500,      -7.37974
495.612,46.39667,      -7.38184
496.129,46.44833,      -7.38384
496.642,46.50000,      -7.38594
497.154,46.55167,      -7.38744
497.672,46.60333,      -7.38923
498.189,46.65500,      -7.39163
498.706,46.70667,      -7.39362
499.221,46.75833,      -7.39592
499.739,46.81000,      -7.39802
500.255,46.86167,      -7.40021
500.772,46.91333,      -7.40211
501.288,46.96500,      -7.40401
501.802,47.01667,      -7.40611
502.317,47.06833,      -7.40810
502.83,47.12000,      -7.41020
503.348,47.17167,      -7.41220
503.862,47.22333,      -7.41419
504.384,47.27500,      -7.41598
504.902,47.32667,      -7.41748
505.419,47.37833,      -7.41877
505.935,47.43000,      -7.42077
506.454,47.48167,      -7.42297
506.968,47.53333,      -7.42496
507.481,47.58500,      -7.42706
507.997,47.63667,      -7.42846
508.513,47.68833,      -7.42985
509.03,47.74000,      -7.43165
509.548,47.79167,      -7.43434
510.065,47.84333,      -7.43654
510.579,47.89500,      -7.43873
511.094,47.94667,      -7.44083
511.609,47.99833,      -7.44293
512.125,48.05000,      -7.44462
512.638,48.10167,      -7.44592
513.154,48.15333,      -7.44721
513.669,48.20500,      -7.44861
514.185,48.25667,      -7.45000
514.699,48.30833,      -7.45160
515.217,48.36000,      -7.45369
515.734,48.41167,      -7.45588
516.252,48.46333,      -7.45777
516.769,48.51500,      -7.45907
517.289,48.56667,      -7.46056
517.801,48.61833,      -7.46266
518.316,48.67000,      -7.46455
518.829,48.72167,      -7.46605
519.346,48.77333,      -7.46744
519.865,48.82500,      -7.46923
520.382,48.87667,      -7.47082
520.9,48.92833,      -7.47302
521.419,48.98000,      -7.47491
521.935,49.03167,      -7.47650
522.453,49.08333,      -7.47850
522.968,49.13500,      -7.48019
523.485,49.18667,      -7.48158
524,49.23833,      -7.48258
524.516,49.29000,      -7.48387
525.031,49.34167,      -7.48526
525.545,49.39333,      -7.48656
526.061,49.44500,      -7.48775
526.576,49.49667,      -7.48915
527.094,49.54833,      -7.49083
527.606,49.60000,      -7.49293
528.126,49.65167,      -7.49522
528.642,49.70333,      -7.49711
529.16,49.75500,      -7.49880
529.68,49.80667,      -7.49939
530.196,49.85833,      -7.50078
530.714,49.91000,      -7.50327
531.227,49.96167,      -7.50547
531.743,50.01333,      -7.50736
532.261,50.06500,      -7.50845
532.781,50.11667,      -7.50974
533.299,50.16833,      -7.51093
533.816,50.22000,      -7.51212
534.333,50.27167,      -7.51341
534.85,50.32333,      -7.51470
535.367,50.37500,      -7.51609
535.882,50.42667,      -7.51738
536.397,50.47833,      -7.51877
536.915,50.53000,      -7.51996
537.428,50.58167,      -7.52166
537.947,50.63333,      -7.52324
538.462,50.68500,      -7.52543
538.975,50.73667,      -7.52743
539.492,50.78833,      -7.52911
540.007,50.84000,      -7.53051
540.524,50.89167,      -7.53149
541.039,50.94333,      -7.53278
541.553,50.99500,      -7.53388
542.068,51.04667,      -7.53516
542.584,51.09833,      -7.53625
543.101,51.15000,      -7.53754
543.621,51.20167,      -7.53892
544.136,51.25333,      -7.54031
544.656,51.30500,      -7.54220
545.174,51.35667,      -7.54409
545.691,51.40833,      -7.54558
546.206,51.46000,      -7.54697
546.715,51.51167,      -7.54836
547.228,51.56333,      -7.54955
547.742,51.61500,      -7.55084
548.26,51.66667,      -7.55202
548.779,51.71833,      -7.55331
549.299,51.77000,      -7.55459
549.818,51.82167,      -7.55588
550.337,51.87333,      -7.55726
550.852,51.92500,      -7.55835
551.37,51.97667,      -7.55964
551.886,52.02833,      -7.56093
552.398,52.08000,      -7.56212
552.914,52.13167,      -7.56380
553.43,52.18333,      -7.56529
553.943,52.23500,      -7.56698
554.459,52.28667,      -7.56856
554.979,52.33833,      -7.56984
555.498,52.39000,      -7.57073
556.015,52.44167,      -7.57201
556.534,52.49333,      -7.57300
557.053,52.54500,      -7.57428
557.569,52.59667,      -7.57567
558.085,52.64833,      -7.57685
558.602,52.70000,      -7.57824
559.122,52.75167,      -7.57952
559.639,52.80333,      -7.58100
560.159,52.85500,      -7.58239
560.672,52.90667,      -7.58368
561.19,52.95833,      -7.58496
561.703,53.01000,      -7.58605
562.219,53.06167,      -7.58733
562.738,53.11333,      -7.58851
563.257,53.16500,      -7.58989
563.774,53.21667,      -7.59108
564.288,53.26833,      -7.59246
564.803,53.32000,      -7.59365
565.313,53.37167,      -7.59494
565.829,53.42333,      -7.59612
566.345,53.47500,      -7.59740
566.863,53.52667,      -7.59878
567.381,53.57833,      -7.60006
567.896,53.63000,      -7.60134
568.413,53.68167,      -7.60242
568.931,53.73333,      -7.60390
569.448,53.78500,      -7.60459
569.964,53.83667,      -7.60597
570.484,53.88833,      -7.60805
570.998,53.94000,      -7.60963
571.517,53.99167,      -7.61071
572.036,54.04333,      -7.61189
572.555,54.09500,      -7.61277
573.074,54.14667,      -7.61365
573.591,54.19833,      -7.61483
574.108,54.25000,      -7.61571
574.623,54.30167,      -7.61659
575.138,54.35333,      -7.61777
575.654,54.40500,      -7.61905
576.172,54.45667,      -7.62003
576.69,54.50833,      -7.62101
577.209,54.56000,      -7.62229
577.722,54.61167,      -7.62337
578.237,54.66333,      -7.62475
578.755,54.71500,      -7.62603
579.271,54.76667,      -7.62721
579.79,54.81833,      -7.62838
580.307,54.87000,      -7.62956
580.823,54.92167,      -7.63064
581.342,54.97333,      -7.63182
581.856,55.02500,      -7.63290
582.378,55.07667,      -7.63397
582.896,55.12833,      -7.63515
583.416,55.18000,      -7.63592
583.93,55.23167,      -7.63680
584.449,55.28333,      -7.63798
584.966,55.33500,      -7.63896
585.481,55.38667,      -7.64004
586,55.43833,      -7.64131
586.514,55.49000,      -7.64269
587.029,55.54167,      -7.64387
587.546,55.59333,      -7.64524
588.062,55.64500,      -7.64642
588.577,55.69667,      -7.64760
589.095,55.74833,      -7.64867
589.613,55.80000,      -7.64984
590.135,55.85167,      -7.65081
590.652,55.90333,      -7.65169
591.17,55.95500,      -7.65286
591.685,56.00667,      -7.65384
592.199,56.05833,      -7.65482
592.713,56.11000,      -7.65579
593.224,56.16167,      -7.65707
593.74,56.21333,      -7.65804
594.258,56.26500,      -7.65911
594.778,56.31667,      -7.66028
595.298,56.36833,      -7.66135
595.821,56.42000,      -7.66242
596.337,56.47167,      -7.66360
596.857,56.52333,      -7.66457
597.372,56.57500,      -7.66554
597.888,56.62667,      -7.66652
598.403,56.67833,      -7.66759
598.913,56.73000,      -7.66857
599.43,56.78167,      -7.66964
599.944,56.83333,      -7.67071
600.463,56.88500,      -7.67168
600.981,56.93667,      -7.67245
601.497,56.98833,      -7.67312
602.02,57.04000,      -7.67418
602.539,57.09167,      -7.67526
603.055,57.14333,      -7.67603
603.571,57.19500,      -7.67700
604.085,57.24667,      -7.67827
604.6,57.29833,      -7.67914
605.118,57.35000,      -7.68021
605.633,57.40167,      -7.68138
606.151,57.45333,      -7.68225
606.667,57.50500,      -7.68302
607.185,57.55667,      -7.68409
607.702,57.60833,      -7.68526
608.218,57.66000,      -7.68613
608.735,57.71167,      -7.68710
609.25,57.76333,      -7.68787
609.767,57.81500,      -7.68873
610.283,57.86667,      -7.68930
610.799,57.91833,      -7.69027
611.313,57.97000,      -7.69114
611.83,58.02167,      -7.69231
612.347,58.07333,      -7.69317
612.86,58.12500,      -7.69404
613.376,58.17667,      -7.69491
613.891,58.22833,      -7.69578
614.405,58.28000,      -7.69675
614.919,58.33167,      -7.69761
615.435,58.38333,      -7.69848
615.952,58.43500,      -7.69934
616.472,58.48667,      -7.70031
616.989,58.53833,      -7.70117
617.51,58.59000,      -7.70223
618.027,58.64167,      -7.70310
618.547,58.69333,      -7.70406
619.06,58.74500,      -7.70493
619.573,58.79667,      -7.70550
620.089,58.84833,      -7.70657
620.604,58.90000,      -7.70723
621.117,58.95167,      -7.70810
621.634,59.00333,      -7.70876
622.149,59.05500,      -7.70953
622.669,59.10667,      -7.70959
623.186,59.15833,      -7.71025
623.703,59.21000,      -7.71181
624.22,59.26167,      -7.71378
624.734,59.31333,      -7.71544
625.249,59.36500,      -7.71621
625.766,59.41667,      -7.71667
626.282,59.46833,      -7.71713
626.797,59.52000,      -7.71790
627.315,59.57167,      -7.71866
627.833,59.62333,      -7.71952
628.351,59.67500,      -7.72018
628.868,59.72667,      -7.72084
629.384,59.77833,      -7.72161
629.904,59.83000,      -7.72217
630.422,59.88167,      -7.72303
630.935,59.93333,      -7.72419
631.447,59.98500,      -7.72506
631.963,60.03667,      -7.72572
632.477,60.08833,      -7.72678
632.992,60.14000,      -7.72785
633.505,60.19167,      -7.72871
634.023,60.24333,      -7.72946
634.543,60.29500,      -7.73002
635.059,60.34667,      -7.73108
635.577,60.39833,      -7.73194
636.093,60.45000,      -7.73280
636.609,60.50167,      -7.73367
637.124,60.55333,      -7.73453
637.641,60.60500,      -7.73549
638.155,60.65667,      -7.73625
638.669,60.70833,      -7.73711
639.188,60.76000,      -7.73766
639.702,60.81167,      -7.73853
640.217,60.86333,      -7.73929
640.734,60.91500,      -7.73985
641.251,60.96667,      -7.74100
641.767,61.01833,      -7.74176
642.282,61.07000,      -7.74262
642.798,61.12167,      -7.74368
643.313,61.17333,      -7.74464
643.831,61.22500,      -7.74550
644.348,61.27667,      -7.74615
644.863,61.32833,      -7.74661
645.38,61.38000,      -7.74727
645.896,61.43167,      -7.74793
646.413,61.48333,      -7.74859
646.927,61.53500,      -7.74934
647.446,61.58667,      -7.74990
647.964,61.63833,      -7.75056
648.48,61.69000,      -7.75121
648.998,61.74167,      -7.75197
649.517,61.79333,      -7.75293
650.035,61.84500,      -7.75398
650.548,61.89667,      -7.75454
651.064,61.94833,      -7.75530
651.579,62.00000,      -7.75586
652.094,62.05167,      -7.75651
652.611,62.10333,      -7.75737
653.126,62.15500,      -7.75823
653.643,62.20667,      -7.75908
654.157,62.25833,      -7.75994
654.675,62.31000,      -7.76079
655.193,62.36167,      -7.76175
655.708,62.41333,      -7.76250
656.223,62.46500,      -7.76306
656.737,62.51667,      -7.76372
657.258,62.56833,      -7.76447
657.774,62.62000,      -7.76493
658.289,62.67167,      -7.76538
658.804,62.72333,      -7.76604
659.319,62.77500,      -7.76659
659.834,62.82667,      -7.76725
660.347,62.87833,      -7.76811
660.863,62.93000,      -7.76866
661.379,62.98167,      -7.76941
661.897,63.03333,      -7.77026
662.414,63.08500,      -7.77112
662.932,63.13667,      -7.77197
663.448,63.18833,      -7.77282
663.965,63.24000,      -7.77358
664.483,63.29167,      -7.77413
664.998,63.34333,      -7.77489
665.513,63.39500,      -7.77544
666.027,63.44667,      -7.77620
666.547,63.49833,      -7.77695
667.061,63.55000,      -7.77770
667.579,63.60167,      -7.77835
668.095,63.65333,      -7.77900
668.612,63.70500,      -7.77956
669.131,63.75667,      -7.78011
669.645,63.80833,      -7.78076
670.162,63.86000,      -7.78162
670.677,63.91167,      -7.78227
671.193,63.96333,      -7.78302
671.712,64.01500,      -7.78367
672.226,64.06667,      -7.78443
672.741,64.11833,      -7.78508
673.26,64.17000,      -7.78573
673.776,64.22167,      -7.78648
674.295,64.27333,      -7.78693
674.812,64.32500,      -7.78818
675.331,64.37667,      -7.78933
675.849,64.42833,      -7.78998
676.367,64.48000,      -7.79063
676.878,64.53167,      -7.79099
677.397,64.58333,      -7.79134
677.913,64.63500,      -7.79189
678.429,64.68667,      -7.79254
678.946,64.73833,      -7.79329
679.461,64.79000,      -7.79384
679.981,64.84167,      -7.79449
680.497,64.89333,      -7.79504
681.013,64.94500,      -7.79579
681.529,64.99667,      -7.79655
682.044,65.04833,      -7.79710
682.564,65.10000,      -7.79785
683.079,65.15167,      -7.79820
683.594,65.20333,      -7.79865
684.108,65.25500,      -7.79930
684.624,65.30667,      -7.79975
685.142,65.35833,      -7.80050
685.658,65.41000,      -7.80115
686.173,65.46167,      -7.80220
686.69,65.51333,      -7.80305
687.209,65.56500,      -7.80399
687.728,65.61667,      -7.80474
688.243,65.66833,      -7.80559
688.759,65.72000,      -7.80614
689.277,65.77167,      -7.80679
689.794,65.82333,      -7.80724
690.31,65.87500,      -7.80769
690.823,65.92667,      -7.80834
691.338,65.97833,      -7.80899
691.853,66.03000,      -7.80984
692.371,66.08167,      -7.81069
692.884,66.13333,      -7.81134
693.404,66.18500,      -7.81208
693.917,66.23667,      -7.81274
694.435,66.28833,      -7.81338
694.954,66.34000,      -7.81423
695.471,66.39167,      -7.81508
695.987,66.44333,      -7.81553
696.501,66.49500,      -7.81618
697.018,66.54667,      -7.81662
697.536,66.59833,      -7.81717
698.055,66.65000,      -7.81792
698.569,66.70167,      -7.81867
699.086,66.75333,      -7.81942
699.603,66.80500,      -7.82006
700.122,66.85667,      -7.82081
700.638,66.90833,      -7.82146
701.151,66.96000,      -7.82231
701.662,67.01167,      -7.82286
702.177,67.06333,      -7.82331
702.697,67.11500,      -7.82415
703.214,67.16667,      -7.82480
703.732,67.21833,      -7.82565
704.25,67.27000,      -7.82639
704.766,67.32167,      -7.82724
705.281,67.37333,      -7.82769
705.802,67.42500,      -7.82823
706.318,67.47667,      -7.82888
706.835,67.52833,      -7.82963
707.349,67.58000,      -7.83028
707.866,67.63167,      -7.83103
708.377,67.68333,      -7.83198
708.896,67.73500,      -7.83272
709.413,67.78667,      -7.83347
709.926,67.83833,      -7.83402
710.443,67.89000,      -7.83467
710.958,67.94167,      -7.83552
711.473,67.99333,      -7.83606
711.99,68.04500,      -7.83671
712.505,68.09667,      -7.83716
713.021,68.14833,      -7.83781
713.538,68.20000,      -7.83845
714.056,68.25167,      -7.83910
714.57,68.30333,      -7.83985
715.091,68.35500,      -7.84069
715.607,68.40667,      -7.84134
716.12,68.45833,      -7.84219
716.642,68.51000,      -7.84323
717.162,68.56167,      -7.84378
717.678,68.61333,      -7.84452
718.197,68.66500,      -7.84527
718.711,68.71667,      -7.84612
719.225,68.76833,      -7.84667
719.743,68.82000,      -7.84752
720.261,68.87167,      -7.84796
720.774,68.92333,      -7.84871
721.293,68.97500,      -7.84946
721.808,69.02667,      -7.85000
722.325,69.07833,      -7.85075
722.84,69.13000,      -7.85150
723.357,69.18167,      -7.85204
723.872,69.23333,      -7.85269
724.389,69.28500,      -7.85323
724.905,69.33667,      -7.85388
725.421,69.38833,      -7.85443
725.934,69.44000,      -7.85508
726.449,69.49167,      -7.85552
726.964,69.54333,      -7.85617
727.479,69.59500,      -7.85672
727.995,69.64667,      -7.85716
728.509,69.69833,      -7.85751
729.026,69.75000,      -7.85835
729.541,69.80167,      -7.85910
730.059,69.85333,      -7.85974
730.576,69.90500,      -7.86039
731.095,69.95667,      -7.86103
731.612,70.00833,      -7.86157
732.129,70.06000,      -7.86232
732.642,70.11167,      -7.86327
733.161,70.16333,      -7.86391
733.673,70.21500,      -7.86446
734.192,70.26667,      -7.86520
734.706,70.31833,      -7.86605
735.223,70.37000,      -7.86699
735.735,70.42167,      -7.86764
736.253,70.47333,      -7.86838
736.772,70.52500,      -7.86922
737.29,70.57667,      -7.87007
737.809,70.62833,      -7.87071
738.33,70.68000,      -7.87155
738.846,70.73167,      -7.87209
739.365,70.78333,      -7.87274
739.881,70.83500,      -7.87348
740.397,70.88667,      -7.87423
740.911,70.93833,      -7.87517
741.426,70.99000,      -7.87612
741.943,71.04167,      -7.87686
742.461,71.09333,      -7.87730
742.978,71.14500,      -7.87764
743.494,71.19667,      -7.87828
744.014,71.24833,      -7.87883
744.527,71.30000,      -7.87957
745.045,71.35167,      -7.88041
745.56,71.40333,      -7.88116
746.08,71.45500,      -7.88190
746.593,71.50667,      -7.88284
747.107,71.55833,      -7.88358
747.623,71.61000,      -7.88442
748.138,71.66167,      -7.88507
748.655,71.71333,      -7.88591
749.175,71.76500,      -7.88644
749.694,71.81667,      -7.88698
750.217,71.86833,      -7.88782
750.734,71.92000,      -7.88896
751.252,71.97167,      -7.88980
751.768,72.02333,      -7.89064
752.283,72.07500,      -7.89159
752.8,72.12667,      -7.89243
753.316,72.17833,      -7.89337
753.831,72.23000,      -7.89411
754.347,72.28167,      -7.89455
754.869,72.33333,      -7.89528
755.385,72.38500,      -7.89582
755.902,72.43667,      -7.89656
756.415,72.48833,      -7.89740
756.93,72.54000,      -7.89825
757.446,72.59167,      -7.89898
757.957,72.64333,      -7.89982
758.476,72.69500,      -7.90066
758.994,72.74667,      -7.90120
759.515,72.79833,      -7.90193
760.032,72.85000,      -7.90277
760.552,72.90167,      -7.90361
761.067,72.95333,      -7.90434
761.579,73.00500,      -7.90539
762.094,73.05667,      -7.90612
762.606,73.10833,      -7.90676
763.122,73.16000,      -7.90770
763.64,73.21167,      -7.90823
764.161,73.26333,      -7.90887
764.677,73.31500,      -7.90970
765.195,73.36667,      -7.91024
765.711,73.41833,      -7.91087
766.223,73.47000,      -7.91141
766.736,73.52167,      -7.91225
767.252,73.57333,      -7.91329
767.767,73.62500,      -7.91442
768.285,73.67667,      -7.91515
768.798,73.72833,      -7.91609
769.314,73.78000,      -7.91712
769.831,73.83167,      -7.91816
770.348,73.88333,      -7.91889
770.863,73.93500,      -7.91963
771.378,73.98667,      -7.92016
771.893,74.03833,      -7.92079
772.41,74.09000,      -7.92173
772.93,74.14167,      -7.92276
773.449,74.19333,      -7.92379
773.968,74.24500,      -7.92462
774.485,74.29667,      -7.92545
775.003,74.34833,      -7.92638
775.52,74.40000,      -7.92742
776.037,74.45167,      -7.92825
776.553,74.50333,      -7.92928
777.066,74.55500,      -7.92981
777.588,74.60667,      -7.93044
778.103,74.65833,      -7.93127
778.621,74.71000,      -7.93180
779.142,74.76167,      -7.93263
779.66,74.81333,      -7.93326
780.176,74.86500,      -7.93389
780.691,74.91667,      -7.93492
781.211,74.96833,      -7.93575
781.725,75.02000,      -7.93678
782.236,75.07167,      -7.93761
782.755,75.12333,      -7.93854
783.266,75.17500,      -7.93937
783.784,75.22667,      -7.94009
784.3,75.27833,      -7.94092
784.817,75.33000,      -7.94185
785.337,75.38167,      -7.94297
785.856,75.43333,      -7.94390
786.372,75.48500,      -7.94483
786.887,75.53667,      -7.94565
787.403,75.58833,      -7.94668
787.92,75.64000,      -7.94771
788.436,75.69167,      -7.94863
788.951,75.74333,      -7.94966
789.469,75.79500,      -7.95058
789.984,75.84667,      -7.95151
790.5,75.89833,      -7.95233
791.017,75.95000,      -7.95326
791.535,76.00167,      -7.95428
792.05,76.05333,      -7.95510
792.57,76.10500,      -7.95613
793.085,76.15667,      -7.95725
793.6,76.20833,      -7.95807
794.116,76.26000,      -7.95900
794.633,76.31167,      -7.95992
795.151,76.36333,      -7.96084
795.665,76.41500,      -7.96206
796.187,76.46667,      -7.96318
796.702,76.51833,      -7.96420
797.22,76.57000,      -7.96512
797.74,76.62167,      -7.96624
798.257,76.67333,      -7.96696
798.772,76.72500,      -7.96778
799.288,76.77667,      -7.96880
799.501,76.79833,      -7.96913