File: data-raw/TGA/KK_TGA.csv
#EXPORTTYPE:                 ,DATA SINGLE
#FILE:                       ,KK.ngb-st9
#FORMAT:                     ,NETZSCH5
#FTYPE:                      ,ANSI
#IDENTITY:                   ,Saras
#DECIMAL:                    ,POINT
#SEPARATOR:                  ,COMMA
#MTYPE:                      ,TG
#INSTRUMENT:                 ,NETZSCH TG 209F1 Libra
#PROJECT:                    ,IL
#DATE/TIME:                  ,20/03/2017 12:21:48 PM (UTC+11)
#CORR. FILE:                 ,
#TEMPCAL:                    ,TCALZERO.TCX
#LABORATORY:                 ,Capture Lab
#OPERATOR:                   ,NJN
#REMARK:                     ,Training run
#SAMPLE:                     ,KK
#SAMPLE MASS /mg:            ,14.6570
#MATERIAL:                   ,zeolite
#TYPE OF CRUCIBLE:           ,Al2O3
#SAMPLE CRUCIBLE MASS /mg:   ,311.1418
#REFERENCE CRUCIBLE MASS /mg:,
#M.RANGE /mg:                ,2000
#CORR. CODE:                 ,090
#RANGE:                      ,32°C/10.0(K/min)/800°C
#SEGMENT:                    ,S1/1
#SEG. 1:                     ,32°C/10.0(K/min)/800°C

##Temp./°C,Time/min,Mass loss/mg
 31.42300, 0.00000,-1.485111e-003
 31.41900, 0.05167,-3.600517e-003
 31.48500, 0.10333,-5.404997e-003
 31.81000, 0.15500,-5.581005e-003
 32.21600, 0.20667,-5.041768e-003
 32.59300, 0.25833,-6.118169e-003
 32.97900, 0.31000,-7.411160e-003
 33.41100, 0.36167,-8.777860e-003
 33.89700, 0.41333,-9.900625e-003
 34.40300, 0.46500,-1.133470e-002
 34.94000, 0.51667,-1.300967e-002
 35.50000, 0.56833,-1.512040e-002
 36.08600, 0.62000,-1.706224e-002
 36.69500, 0.67167,-1.927112e-002
 37.32000, 0.72333,-2.167445e-002
 37.95800, 0.77500,-2.466035e-002
 38.60600, 0.82667,-2.820567e-002
 39.25600, 0.87833,-3.212296e-002
 39.91700, 0.93000,-3.582841e-002
 40.57200, 0.98167,-3.950211e-002
 41.22900, 1.03333,-4.344880e-002
 41.88200, 1.08500,-4.711594e-002
 42.52600, 1.13667,-5.132485e-002
 43.16600, 1.18833,-5.521979e-002
 43.79500, 1.24000,-5.953904e-002
 44.41400, 1.29167,-6.382998e-002
 45.02000, 1.34333,-6.878526e-002
 45.61800, 1.39500,-7.334023e-002
 46.20700, 1.44667,-7.840248e-002
 46.78500, 1.49833,-8.324868e-002
 47.35500, 1.55000,-8.880034e-002
 47.91000, 1.60167,-9.411943e-002
 48.45900, 1.65333,-9.948089e-002
 48.99600, 1.70500,      -0.10532
 49.52400, 1.75667,      -0.11117
 50.05000, 1.80833,      -0.11719
 50.56900, 1.86000,      -0.12299
 51.08000, 1.91167,      -0.12970
 51.58700, 1.96333,      -0.13541
 52.08900, 2.01500,      -0.14235
 52.59000, 2.06667,      -0.14911
 53.08900, 2.11833,      -0.15560
 53.58700, 2.17000,      -0.16259
 54.07800, 2.22167,      -0.16896
 54.57500, 2.27333,      -0.17609
 55.07100, 2.32500,      -0.18253
 55.56500, 2.37667,      -0.18976
 56.05800, 2.42833,      -0.19688
 56.55300, 2.48000,      -0.20433
 57.05200, 2.53167,      -0.21197
 57.55500, 2.58333,      -0.21924
 58.05200, 2.63500,      -0.22690
 58.56300, 2.68667,      -0.23442
 59.07100, 2.73833,      -0.24218
 59.57900, 2.79000,      -0.24983
 60.08800, 2.84167,      -0.25788
 60.60400, 2.89333,      -0.26565
 61.11600, 2.94500,      -0.27391
 61.63000, 2.99667,      -0.28225
 62.14900, 3.04833,      -0.29052
 62.67000, 3.10000,      -0.29889
 63.18400, 3.15167,      -0.30691
 63.70900, 3.20333,      -0.31556
 64.22700, 3.25500,      -0.32330
 64.74900, 3.30667,      -0.33204
 65.27400, 3.35833,      -0.34019
 65.79300, 3.41000,      -0.34928
 66.31900, 3.46167,      -0.35812
 66.83800, 3.51333,      -0.36624
 67.36000, 3.56500,      -0.37495
 67.88500, 3.61667,      -0.38318
 68.40700, 3.66833,      -0.39199
 68.92800, 3.72000,      -0.40030
 69.44800, 3.77167,      -0.40890
 69.96900, 3.82333,      -0.41720
 70.48800, 3.87500,      -0.42581
 71.01400, 3.92667,      -0.43454
 71.53100, 3.97833,      -0.44243
 72.04900, 4.03000,      -0.45083
 72.57200, 4.08167,      -0.45893
 73.08800, 4.13333,      -0.46773
 73.61000, 4.18500,      -0.47594
 74.12700, 4.23667,      -0.48434
 74.64600, 4.28833,      -0.49223
 75.16300, 4.34000,      -0.50034
 75.68100, 4.39167,      -0.50834
 76.20000, 4.44333,      -0.51594
 76.71400, 4.49500,      -0.52393
 77.23400, 4.54667,      -0.53134
 77.74900, 4.59833,      -0.53924
 78.26900, 4.65000,      -0.54634
 78.78400, 4.70167,      -0.55384
 79.30400, 4.75333,      -0.56074
 79.82300, 4.80500,      -0.56805
 80.33700, 4.85667,      -0.57534
 80.85800, 4.90833,      -0.58185
 81.37300, 4.96000,      -0.58905
 81.89100, 5.01167,      -0.59533
 82.40700, 5.06333,      -0.60234
 82.92600, 5.11500,      -0.60893
 83.43900, 5.16667,      -0.61571
 83.95500, 5.21833,      -0.62151
 84.47300, 5.27000,      -0.62770
 84.98600, 5.32167,      -0.63419
 85.50100, 5.37333,      -0.64000
 86.02100, 5.42500,      -0.64601
 86.53800, 5.47667,      -0.65200
 87.05500, 5.52833,      -0.65819
 87.57500, 5.58000,      -0.66349
 88.09300, 5.63167,      -0.66930
 88.61300, 5.68333,      -0.67470
 89.12600, 5.73500,      -0.67998
 89.64800, 5.78667,      -0.68518
 90.16500, 5.83833,      -0.69018
 90.68400, 5.89000,      -0.69517
 91.20000, 5.94167,      -0.69976
 91.71600, 5.99333,      -0.70474
 92.23500, 6.04500,      -0.70933
 92.75300, 6.09667,      -0.71412
 93.26700, 6.14833,      -0.71821
 93.78600, 6.20000,      -0.72272
 94.30200, 6.25167,      -0.72711
 94.82500, 6.30333,      -0.73091
 95.34100, 6.35500,      -0.73510
 95.86100, 6.40667,      -0.73890
 96.38100, 6.45833,      -0.74290
 96.89700, 6.51000,      -0.74637
 97.41700, 6.56167,      -0.75027
 97.93300, 6.61333,      -0.75366
 98.45200, 6.66500,      -0.75705
 98.96800, 6.71667,      -0.76033
 99.48300, 6.76833,      -0.76371
 99.99700, 6.82000,      -0.76699
100.513, 6.87167,      -0.77031
101.031, 6.92333,      -0.77354
101.547, 6.97500,      -0.77635
102.064, 7.02667,      -0.77965
102.582, 7.07833,      -0.78237
103.095, 7.13000,      -0.78527
103.611, 7.18167,      -0.78789
104.126, 7.23333,      -0.79038
104.644, 7.28500,      -0.79310
105.159, 7.33667,      -0.79581
105.674, 7.38833,      -0.79840
106.191, 7.44000,      -0.80071
106.706, 7.49167,      -0.80311
107.225, 7.54333,      -0.80571
107.742, 7.59500,      -0.80781
108.258, 7.64667,      -0.81011
108.774, 7.69833,      -0.81210
109.289, 7.75000,      -0.81410
109.807, 7.80167,      -0.81609
110.322, 7.85333,      -0.81777
110.838, 7.90500,      -0.81916
111.353, 7.95667,      -0.82055
111.868, 8.00833,      -0.82203
112.384, 8.06000,      -0.82353
112.898, 8.11167,      -0.82532
113.416, 8.16333,      -0.82720
113.93, 8.21500,      -0.82958
114.444, 8.26667,      -0.83156
114.961, 8.31833,      -0.83316
115.477, 8.37000,      -0.83414
115.993, 8.42167,      -0.83552
116.507, 8.47333,      -0.83689
117.022, 8.52500,      -0.83817
117.536, 8.57667,      -0.83964
118.053, 8.62833,      -0.84092
118.568, 8.68000,      -0.84210
119.086, 8.73167,      -0.84358
119.604, 8.78333,      -0.84506
120.119, 8.83500,      -0.84622
120.638, 8.88667,      -0.84791
121.155, 8.93833,      -0.84997
121.676, 8.99000,      -0.85185
122.192, 9.04167,      -0.85331
122.707, 9.09333,      -0.85458
123.222, 9.14500,      -0.85603
123.736, 9.19667,      -0.85750
124.253, 9.24833,      -0.85877
124.771, 9.30000,      -0.86013
125.287, 9.35167,      -0.86149
125.802, 9.40333,      -0.86285
126.322, 9.45500,      -0.86412
126.839, 9.50667,      -0.86548
127.354, 9.55833,      -0.86693
127.871, 9.61000,      -0.86899
128.386, 9.66167,      -0.87115
128.902, 9.71333,      -0.87320
129.418, 9.76500,      -0.87456
129.938, 9.81667,      -0.87572
130.456, 9.86833,      -0.87708
130.971, 9.92000,      -0.87823
131.49, 9.97167,      -0.87958
132.008,10.02333,      -0.88083
132.524,10.07500,      -0.88248
133.04,10.12667,      -0.88423
133.558,10.17833,      -0.88598
134.074,10.23000,      -0.88813
134.589,10.28167,      -0.88957
135.108,10.33333,      -0.89103
135.623,10.38500,      -0.89207
136.14,10.43667,      -0.89342
136.656,10.48833,      -0.89486
137.172,10.54000,      -0.89641
137.694,10.59167,      -0.89796
138.207,10.64333,      -0.90030
138.725,10.69500,      -0.90214
139.241,10.74667,      -0.90419
139.759,10.79833,      -0.90613
140.275,10.85000,      -0.90796
140.794,10.90167,      -0.90962
141.314,10.95333,      -0.91096
141.831,11.00500,      -0.91240
142.346,11.05667,      -0.91393
142.866,11.10833,      -0.91567
143.385,11.16000,      -0.91741
143.902,11.21167,      -0.91934
144.412,11.26333,      -0.92157
144.931,11.31500,      -0.92311
145.449,11.36667,      -0.92456
145.969,11.41833,      -0.92600
146.486,11.47000,      -0.92753
147.002,11.52167,      -0.92896
147.519,11.57333,      -0.93090
148.037,11.62500,      -0.93313
148.553,11.67667,      -0.93497
149.073,11.72833,      -0.93610
149.592,11.78000,      -0.93734
150.109,11.83167,      -0.93876
150.627,11.88333,      -0.94000
151.142,11.93500,      -0.94142
151.662,11.98667,      -0.94267
152.179,12.03833,      -0.94449
152.695,12.09000,      -0.94612
153.21,12.14167,      -0.94815
153.724,12.19333,      -0.95057
154.24,12.24500,      -0.95230
154.756,12.29667,      -0.95373
155.274,12.34833,      -0.95516
155.789,12.40000,      -0.95669
156.304,12.45167,      -0.95822
156.819,12.50333,      -0.95995
157.339,12.55500,      -0.96178
157.854,12.60667,      -0.96390
158.371,12.65833,      -0.96633
158.885,12.71000,      -0.96836
159.396,12.76167,      -0.97047
159.914,12.81333,      -0.97241
160.43,12.86500,      -0.97434
160.947,12.91667,      -0.97627
161.466,12.96833,      -0.97841
161.979,13.02000,      -0.98043
162.495,13.07167,      -0.98226
163.015,13.12333,      -0.98419
163.533,13.17500,      -0.98652
164.048,13.22667,      -0.98864
164.563,13.27833,      -0.99076
165.08,13.33000,      -0.99279
165.594,13.38167,      -0.99491
166.113,13.43333,      -0.99764
166.628,13.48500,      -0.99977
167.145,13.53667,      -1.00239
167.662,13.58833,      -1.00502
168.18,13.64000,      -1.00745
168.695,13.69167,      -1.00977
169.212,13.74333,      -1.01220
169.728,13.79500,      -1.01503
170.244,13.84667,      -1.01775
170.765,13.89833,      -1.02068
171.276,13.95000,      -1.02340
171.796,14.00167,      -1.02623
172.312,14.05333,      -1.02876
172.827,14.10500,      -1.03138
173.346,14.15667,      -1.03471
173.867,14.20833,      -1.03755
174.381,14.26000,      -1.04056
174.897,14.31167,      -1.04359
175.413,14.36333,      -1.04671
175.927,14.41500,      -1.04934
176.447,14.46667,      -1.05287
176.963,14.51833,      -1.05630
177.479,14.57000,      -1.05963
177.996,14.62167,      -1.06316
178.513,14.67333,      -1.06608
179.03,14.72500,      -1.06982
179.546,14.77667,      -1.07264
180.063,14.82833,      -1.07587
180.579,14.88000,      -1.07899
181.097,14.93167,      -1.08263
181.612,14.98333,      -1.08616
182.132,15.03500,      -1.08949
182.647,15.08667,      -1.09302
183.165,15.13833,      -1.09645
183.681,15.19000,      -1.10058
184.199,15.24167,      -1.10421
184.717,15.29333,      -1.10814
185.236,15.34500,      -1.11188
185.75,15.39667,      -1.11580
186.269,15.44833,      -1.11974
186.784,15.50000,      -1.12327
187.301,15.55167,      -1.12740
187.819,15.60333,      -1.13163
188.331,15.65500,      -1.13566
188.85,15.70667,      -1.13970
189.368,15.75833,      -1.14394
189.885,15.81000,      -1.14777
190.399,15.86167,      -1.15201
190.919,15.91333,      -1.15624
191.433,15.96500,      -1.16068
191.947,16.01667,      -1.16511
192.464,16.06833,      -1.16925
192.982,16.12000,      -1.17359
193.502,16.17167,      -1.17793
194.018,16.22333,      -1.18257
194.538,16.27500,      -1.18681
195.057,16.32667,      -1.19176
195.573,16.37833,      -1.19629
196.09,16.43000,      -1.20033
196.609,16.48167,      -1.20507
197.122,16.53333,      -1.20951
197.643,16.58500,      -1.21446
198.16,16.63667,      -1.21890
198.675,16.68833,      -1.22374
199.191,16.74000,      -1.22838
199.707,16.79167,      -1.23323
200.225,16.84333,      -1.23828
200.741,16.89500,      -1.24312
201.255,16.94667,      -1.24807
201.777,16.99833,      -1.25312
202.297,17.05000,      -1.25846
202.811,17.10167,      -1.26351
203.327,17.15333,      -1.26845
203.842,17.20500,      -1.27350
204.359,17.25667,      -1.27894
204.874,17.30833,      -1.28439
205.39,17.36000,      -1.29003
205.904,17.41167,      -1.29568
206.418,17.46333,      -1.30103
206.937,17.51500,      -1.30668
207.451,17.56667,      -1.31193
207.968,17.61833,      -1.31748
208.484,17.67000,      -1.32272
208.997,17.72167,      -1.32917
209.514,17.77333,      -1.33532
210.031,17.82500,      -1.34067
210.546,17.87667,      -1.34752
211.061,17.92833,      -1.35356
211.577,17.98000,      -1.36011
212.095,18.03167,      -1.36616
212.61,18.08333,      -1.37291
213.131,18.13500,      -1.37957
213.648,18.18667,      -1.38591
214.163,18.23833,      -1.39276
214.681,18.29000,      -1.39961
215.197,18.34167,      -1.40686
215.716,18.39333,      -1.41381
216.234,18.44500,      -1.42096
216.753,18.49667,      -1.42821
217.27,18.54833,      -1.43566
217.788,18.60000,      -1.44291
218.307,18.65167,      -1.45056
218.821,18.70333,      -1.45851
219.338,18.75500,      -1.46626
219.852,18.80667,      -1.47471
220.369,18.85833,      -1.48286
220.885,18.91000,      -1.49161
221.398,18.96167,      -1.49976
221.919,19.01333,      -1.50901
222.439,19.06500,      -1.51756
222.957,19.11667,      -1.52701
223.474,19.16833,      -1.53656
223.99,19.22000,      -1.54581
224.506,19.27167,      -1.55616
225.02,19.32333,      -1.56521
225.538,19.37500,      -1.57537
226.05,19.42667,      -1.58512
226.57,19.47833,      -1.59577
227.085,19.53000,      -1.60602
227.6,19.58167,      -1.61687
228.117,19.63333,      -1.62842
228.636,19.68500,      -1.63927
229.15,19.73667,      -1.65082
229.667,19.78833,      -1.66188
230.182,19.84000,      -1.67383
230.696,19.89167,      -1.68568
231.214,19.94333,      -1.69813
231.731,19.99500,      -1.70998
232.249,20.04667,      -1.72304
232.762,20.09833,      -1.73599
233.282,20.15000,      -1.74894
233.8,20.20167,      -1.76239
234.317,20.25333,      -1.77535
234.835,20.30500,      -1.78970
235.35,20.35667,      -1.81425
235.867,20.40833,      -1.82460
236.379,20.46000,      -1.83585
236.898,20.51167,      -1.84970
237.414,20.56333,      -1.87216
237.928,20.61500,      -1.88271
238.445,20.66667,      -1.89556
238.961,20.71833,      -1.92141
239.48,20.77000,      -1.93206
239.994,20.82167,      -1.94372
240.511,20.87333,      -1.96697
241.027,20.92500,      -1.97742
241.544,20.97667,      -2.00037
242.062,21.02833,      -2.01183
242.58,21.08000,      -2.03528
243.098,21.13167,      -2.05223
243.615,21.18333,      -2.06898
244.129,21.23500,      -2.08683
244.643,21.28667,      -2.10339
245.161,21.33833,      -2.12134
245.678,21.39000,      -2.13969
246.196,21.44167,      -2.15664
246.714,21.49333,      -2.17570
247.227,21.54500,      -2.19285
247.743,21.59667,      -2.21220
248.262,21.64833,      -2.22995
248.78,21.70000,      -2.24910
249.294,21.75167,      -2.26786
249.812,21.80333,      -2.28731
250.329,21.85500,      -2.30546
250.848,21.90667,      -2.32551
251.364,21.95833,      -2.34546
251.881,22.01000,      -2.36422
252.396,22.06167,      -2.38527
252.909,22.11333,      -2.40482
253.427,22.16500,      -2.42507
253.943,22.21667,      -2.44502
254.459,22.26833,      -2.46607
254.976,22.32000,      -2.48583
255.492,22.37167,      -2.50678
256.01,22.42333,      -2.52843
256.525,22.47500,      -2.54918
257.041,22.52667,      -2.57073
257.557,22.57833,      -2.59168
258.073,22.63000,      -2.61364
258.591,22.68167,      -2.63419
259.107,22.73333,      -2.65664
259.625,22.78500,      -2.67799
260.141,22.83667,      -2.70054
260.657,22.88833,      -2.72279
261.172,22.94000,      -2.74454
261.69,22.99167,      -2.76699
262.207,23.04333,      -2.78835
262.721,23.09500,      -2.81119
263.233,23.14667,      -2.83304
263.751,23.19833,      -2.85580
264.27,23.25000,      -2.87775
264.785,23.30167,      -2.90090
265.302,23.35333,      -2.92405
265.821,23.40500,      -2.94630
266.337,23.45667,      -2.96905
266.856,23.50833,      -2.99100
267.375,23.56000,      -3.01445
267.89,23.61167,      -3.03640
268.405,23.66333,      -3.06055
268.92,23.71500,      -3.08300
269.434,23.76667,      -3.10615
269.95,23.81833,      -3.12990
270.468,23.87000,      -3.15235
270.986,23.92167,      -3.17650
271.501,23.97333,      -3.19845
272.018,24.02500,      -3.22329
272.534,24.07667,      -3.24524
273.054,24.12833,      -3.26839
273.567,24.18000,      -3.29234
274.083,24.23167,      -3.31459
274.604,24.28333,      -3.33874
275.118,24.33500,      -3.36109
275.638,24.38667,      -3.38494
276.152,24.43833,      -3.40728
276.668,24.49000,      -3.43083
277.183,24.54167,      -3.45318
277.7,24.59333,      -3.47683
278.216,24.64500,      -3.49907
278.732,24.69667,      -3.52312
279.25,24.74833,      -3.54707
279.766,24.80000,      -3.56892
280.281,24.85167,      -3.59216
280.799,24.90333,      -3.61431
281.317,24.95500,      -3.63776
281.833,25.00667,      -3.65990
282.345,25.05833,      -3.68335
282.866,25.11000,      -3.70540
283.381,25.16167,      -3.72874
283.901,25.21333,      -3.75219
284.414,25.26500,      -3.77364
284.93,25.31667,      -3.79698
285.445,25.36833,      -3.81903
285.958,25.42000,      -3.84227
286.474,25.47167,      -3.86352
286.992,25.52333,      -3.88766
287.51,25.57500,      -3.91031
288.025,25.62667,      -3.93225
288.54,25.67833,      -3.95520
289.059,25.73000,      -3.97674
289.578,25.78167,      -3.99958
290.096,25.83333,      -4.02153
290.613,25.88500,      -4.04427
291.128,25.93667,      -4.06592
291.645,25.98833,      -4.08886
292.158,26.04000,      -4.11160
292.68,26.09167,      -4.13285
293.193,26.14333,      -4.15619
293.712,26.19500,      -4.17743
294.228,26.24667,      -4.20017
294.744,26.29833,      -4.22132
295.258,26.35000,      -4.24456
295.778,26.40167,      -4.26580
296.291,26.45333,      -4.28914
296.809,26.50500,      -4.31168
297.322,26.55667,      -4.33312
297.838,26.60833,      -4.35617
298.355,26.66000,      -4.37761
298.871,26.71167,      -4.40045
299.385,26.76333,      -4.42189
299.902,26.81500,      -4.44493
300.418,26.86667,      -4.46627
300.936,26.91833,      -4.48961
301.453,26.97000,      -4.51315
301.97,27.02167,      -4.53419
302.485,27.07333,      -4.55753
303.003,27.12500,      -4.57907
303.52,27.17667,      -4.60241
304.039,27.22833,      -4.62385
304.555,27.28000,      -4.64719
305.071,27.33167,      -4.66923
305.588,27.38333,      -4.69257
306.104,27.43500,      -4.71631
306.622,27.48667,      -4.73845
307.136,27.53833,      -4.76209
307.649,27.59000,      -4.78413
308.167,27.64167,      -4.80777
308.681,27.69333,      -4.83041
309.199,27.74500,      -4.85425
309.716,27.79667,      -4.87659
310.234,27.84833,      -4.90103
310.751,27.90000,      -4.92547
311.268,27.95167,      -4.94811
311.783,28.00333,      -4.97265
312.299,28.05500,      -4.99589
312.816,28.10667,      -5.02093
313.332,28.15833,      -5.04527
313.85,28.21000,      -5.07061
314.369,28.26167,      -5.09615
314.886,28.31333,      -5.12009
315.403,28.36500,      -5.14653
315.92,28.41667,      -5.17137
316.44,28.46833,      -5.19701
316.955,28.52000,      -5.22155
317.471,28.57167,      -5.24839
317.99,28.62333,      -5.27363
318.503,28.67500,      -5.30077
319.019,28.72667,      -5.32681
319.536,28.77833,      -5.35375
320.052,28.83000,      -5.38189
320.568,28.88167,      -5.40833
321.084,28.93333,      -5.43697
321.605,28.98500,      -5.46421
322.123,29.03667,      -5.49325
322.638,29.08833,      -5.52089
323.156,29.14000,      -5.55073
323.684,29.19167,      -5.57896
324.199,29.24333,      -5.60991
324.713,29.29500,      -5.64015
325.227,29.34667,      -5.66889
325.735,29.39833,      -5.70073
326.249,29.45000,      -5.73087
326.763,29.50167,      -5.76271
327.28,29.55333,      -5.79355
327.792,29.60500,      -5.82629
328.306,29.65667,      -5.85673
328.825,29.70833,      -5.89057
329.344,29.76000,      -5.92410
329.858,29.81167,      -5.95584
330.376,29.86333,      -5.98988
330.893,29.91500,      -6.02262
331.409,29.96667,      -6.05686
331.926,30.01833,      -6.08960
332.44,30.07000,      -6.12594
332.957,30.12167,      -6.15918
333.469,30.17333,      -6.19532
333.989,30.22500,      -6.23126
334.506,30.27667,      -6.26449
335.024,30.32833,      -6.30123
335.541,30.38000,      -6.33507
336.056,30.43167,      -6.37161
336.574,30.48333,      -6.40595
337.091,30.53500,      -6.44209
337.609,30.58667,      -6.47562
338.127,30.63833,      -6.51186
338.645,30.69000,      -6.54820
339.16,30.74167,      -6.58064
339.68,30.79333,      -6.61708
340.194,30.84500,      -6.65281
340.709,30.89667,      -6.68765
341.223,30.94833,      -6.72049
341.737,31.00000,      -6.75483
342.255,31.05167,      -6.78757
342.771,31.10333,      -6.82130
343.288,31.15500,      -6.85524
343.802,31.20667,      -6.88658
344.321,31.25833,      -6.92012
344.836,31.31000,      -6.95105
345.353,31.36167,      -6.98389
345.869,31.41333,      -7.01383
346.385,31.46500,      -7.04556
346.903,31.51667,      -7.07470
347.418,31.56833,      -7.10534
347.935,31.62000,      -7.13557
348.454,31.67167,      -7.16371
348.971,31.72333,      -7.19315
349.487,31.77500,      -7.22008
350.003,31.82667,      -7.24852
350.518,31.87833,      -7.27446
351.036,31.93000,      -7.30219
351.551,31.98167,      -7.32763
352.065,32.03333,      -7.35457
352.584,32.08500,      -7.38130
353.099,32.13667,      -7.40554
353.615,32.18833,      -7.43067
354.132,32.24000,      -7.45381
354.647,32.29167,      -7.47824
355.165,32.34333,      -7.50098
355.683,32.39500,      -7.52471
356.2,32.44667,      -7.54655
356.718,32.49833,      -7.56968
357.232,32.55000,      -7.59202
357.747,32.60167,      -7.61205
358.263,32.65333,      -7.63339
358.782,32.70500,      -7.65332
359.296,32.75667,      -7.67486
359.81,32.80833,      -7.69479
360.326,32.86000,      -7.71512
360.845,32.91167,      -7.73376
361.362,32.96333,      -7.75309
361.879,33.01500,      -7.77262
362.398,33.06667,      -7.79076
362.915,33.11833,      -7.80929
363.432,33.17000,      -7.82672
363.951,33.22167,      -7.84516
364.463,33.27333,      -7.86219
364.977,33.32500,      -7.88013
365.49,33.37667,      -7.89666
366.005,33.42833,      -7.91199
366.521,33.48000,      -7.92383
367.038,33.53167,      -7.94736
367.556,33.58333,      -7.96289
368.074,33.63500,      -7.97372
368.589,33.68667,      -7.99705
369.108,33.73833,      -8.00698
369.623,33.79000,      -8.02041
370.137,33.84167,      -8.04285
370.656,33.89333,      -8.05448
371.171,33.94500,      -8.06741
371.688,33.99667,      -8.09184
372.206,34.04833,      -8.10257
372.723,34.10000,      -8.11460
373.242,34.15167,      -8.12853
373.756,34.20333,      -8.15086
374.272,34.25500,      -8.16219
374.788,34.30667,      -8.17522
375.305,34.35833,      -8.20135
375.823,34.41000,      -8.21448
376.338,34.46167,      -8.22441
376.855,34.51333,      -8.23734
377.372,34.56500,      -8.26277
377.888,34.61667,      -8.27330
378.404,34.66833,      -8.28423
378.919,34.72000,      -8.29706
379.435,34.77167,      -8.32069
379.951,34.82333,      -8.33161
380.468,34.87500,      -8.34434
380.986,34.92667,      -8.36547
381.502,34.97833,      -8.37990
382.013,35.03000,      -8.39083
382.53,35.08167,      -8.40405
383.047,35.13333,      -8.42748
383.563,35.18500,      -8.43821
384.08,35.23667,      -8.44963
384.596,35.28833,      -8.46876
385.112,35.34000,      -8.48599
385.629,35.39167,      -8.49691
386.147,35.44333,      -8.51014
386.661,35.49500,      -8.53507
387.176,35.54667,      -8.54509
387.693,35.59833,      -8.55662
388.209,35.65000,      -8.58104
388.725,35.70167,      -8.59087
389.24,35.75333,      -8.60309
389.758,35.80500,      -8.61802
390.272,35.85667,      -8.63904
390.791,35.90833,      -8.65057
391.311,35.96000,      -8.66139
391.825,36.01167,      -8.67851
392.344,36.06333,      -8.70284
392.859,36.11500,      -8.71416
393.372,36.16667,      -8.72519
393.889,36.21833,      -8.73891
394.402,36.27000,      -8.76333
394.919,36.32167,      -8.77346
395.435,36.37333,      -8.78588
395.95,36.42500,      -8.79810
396.467,36.47667,      -8.82252
396.986,36.52833,      -8.83204
397.501,36.58000,      -8.84487
398.018,36.63167,      -8.86649
398.533,36.68333,      -8.88031
399.051,36.73500,      -8.89143
399.566,36.78667,      -8.90365
400.081,36.83833,      -8.92757
400.596,36.89000,      -8.93709
401.113,36.94167,      -8.94931
401.63,36.99333,      -8.96123
402.146,37.04500,      -8.98575
402.664,37.09667,      -8.99567
403.18,37.14833,      -9.00769
403.695,37.20000,      -9.02061
404.211,37.25167,      -9.04343
404.728,37.30333,      -9.05375
405.241,37.35500,      -9.06477
405.759,37.40667,      -9.07719
406.275,37.45833,      -9.10131
406.787,37.51000,      -9.11063
407.308,37.56167,      -9.12205
407.822,37.61333,      -9.13347
408.337,37.66500,      -9.15769
408.854,37.71667,      -9.16680
409.372,37.76833,      -9.17802
409.889,37.82000,      -9.18944
410.406,37.87167,      -9.21085
410.923,37.92333,      -9.22337
411.441,37.97500,      -9.23389
411.956,38.02667,      -9.24491
412.475,38.07833,      -9.25712
412.992,38.13000,      -9.26994
413.511,38.18167,      -9.29406
414.027,38.23333,      -9.30258
414.542,38.28500,      -9.31229
415.057,38.33667,      -9.32321
415.571,38.38833,      -9.33483
416.086,38.44000,      -9.34775
416.604,38.49167,      -9.36036
417.119,38.54333,      -9.37348
417.634,38.59500,      -9.38640
418.152,38.64667,      -9.39881
418.67,38.69833,      -9.41152
419.187,38.75000,      -9.42374
419.707,38.80167,      -9.43665
420.22,38.85333,      -9.44857
420.739,38.90500,      -9.46119
421.254,38.95667,      -9.47330
421.769,39.00833,      -9.48472
422.289,39.06000,      -9.49693
422.801,39.11167,      -9.50845
423.319,39.16333,      -9.52106
423.836,39.21500,      -9.53218
424.35,39.26667,      -9.54429
424.867,39.31833,      -9.55561
425.384,39.37000,      -9.56742
425.898,39.42167,      -9.57884
426.413,39.47333,      -9.59035
426.927,39.52500,      -9.60227
427.442,39.57667,      -9.61318
427.956,39.62833,      -9.62430
428.471,39.68000,      -9.63521
428.987,39.73167,      -9.64652
429.503,39.78333,      -9.65774
430.018,39.83500,      -9.66885
430.538,39.88667,      -9.67956
431.057,39.93833,      -9.69097
431.573,39.99000,      -9.70189
432.09,40.04167,      -9.71240
432.607,40.09333,      -9.72331
433.12,40.14500,      -9.73383
433.637,40.19667,      -9.74464
434.153,40.24833,      -9.75465
434.671,40.30000,      -9.76546
435.189,40.35167,      -9.77497
435.706,40.40333,      -9.78548
436.223,40.45500,      -9.79619
436.74,40.50667,      -9.80601
437.258,40.55833,      -9.81642
437.773,40.61000,      -9.82563
438.289,40.66167,      -9.83594
438.805,40.71333,      -9.84535
439.323,40.76500,      -9.85556
439.838,40.81667,      -9.86598
440.354,40.86833,      -9.87519
440.869,40.92000,      -9.88510
441.385,40.97167,      -9.89391
441.901,41.02333,      -9.90342
442.422,41.07500,      -9.91263
442.935,41.12667,      -9.92194
443.454,41.17833,      -9.93105
443.97,41.23000,      -9.94046
444.486,41.28167,      -9.94887
445.003,41.33333,      -9.95808
445.519,41.38500,      -9.96709
446.035,41.43667,      -9.97600
446.551,41.48833,      -9.98451
447.066,41.54000,      -9.99272
447.583,41.59167,     -10.00133
448.098,41.64333,     -10.00934
448.613,41.69500,     -10.01795
449.128,41.74667,     -10.02635
449.647,41.79833,     -10.03396
450.164,41.85000,     -10.04227
450.682,41.90167,     -10.04978
451.196,41.95333,     -10.05779
451.712,42.00500,     -10.06509
452.231,42.05667,     -10.07350
452.743,42.10833,     -10.08101
453.259,42.16000,     -10.08862
453.777,42.21167,     -10.09583
454.293,42.26333,     -10.10293
454.81,42.31500,     -10.11044
455.327,42.36667,     -10.11725
455.844,42.41833,     -10.12465
456.361,42.47000,     -10.13126
456.877,42.52167,     -10.13817
457.394,42.57333,     -10.14497
457.912,42.62500,     -10.15158
458.426,42.67667,     -10.15849
458.942,42.72833,     -10.16510
459.455,42.78000,     -10.17180
459.973,42.83167,     -10.17811
460.486,42.88333,     -10.18482
461.003,42.93500,     -10.19082
461.517,42.98667,     -10.19763
462.032,43.03833,     -10.20354
462.549,43.09000,     -10.20974
463.066,43.14167,     -10.21644
463.584,43.19333,     -10.22245
464.103,43.24500,     -10.22885
464.622,43.29667,     -10.23465
465.138,43.34833,     -10.24056
465.655,43.40000,     -10.24597
466.172,43.45167,     -10.25227
466.685,43.50333,     -10.25788
467.201,43.55500,     -10.26389
467.717,43.60667,     -10.26899
468.235,43.65833,     -10.27459
468.751,43.71000,     -10.28059
469.27,43.76167,     -10.28580
469.786,43.81333,     -10.29160
470.299,43.86500,     -10.29701
470.816,43.91667,     -10.30291
471.333,43.96833,     -10.30831
471.848,44.02000,     -10.31382
472.364,44.07167,     -10.31932
472.879,44.12333,     -10.32512
473.395,44.17500,     -10.33063
473.91,44.22667,     -10.33603
474.426,44.27833,     -10.34133
474.943,44.33000,     -10.34644
475.46,44.38167,     -10.35184
475.976,44.43333,     -10.35674
476.498,44.48500,     -10.36204
477.011,44.53667,     -10.36744
477.529,44.58833,     -10.37275
478.043,44.64000,     -10.37825
478.562,44.69167,     -10.38295
479.075,44.74333,     -10.38845
479.594,44.79500,     -10.39355
480.111,44.84667,     -10.39915
480.629,44.89833,     -10.40405
481.142,44.95000,     -10.40926
481.659,45.00167,     -10.41416
482.175,45.05333,     -10.41876
482.687,45.10500,     -10.42366
483.204,45.15667,     -10.42827
483.719,45.20833,     -10.43346
484.233,45.26000,     -10.43817
484.75,45.31167,     -10.44277
485.263,45.36333,     -10.44737
485.781,45.41500,     -10.45217
486.296,45.46667,     -10.45677
486.814,45.51833,     -10.46116
487.335,45.57000,     -10.46576
487.851,45.62167,     -10.47016
488.37,45.67333,     -10.47436
488.886,45.72500,     -10.47816
489.405,45.77667,     -10.48256
489.923,45.82833,     -10.48656
490.438,45.88000,     -10.49046
490.95,45.93167,     -10.49426
491.465,45.98333,     -10.49776
491.981,46.03500,     -10.50216
492.496,46.08667,     -10.50606
493.014,46.13833,     -10.50995
493.529,46.19000,     -10.51355
494.045,46.24167,     -10.51705
494.561,46.29333,     -10.52065
495.075,46.34500,     -10.52445
495.593,46.39667,     -10.52794
496.11,46.44833,     -10.53114
496.626,46.50000,     -10.53474
497.139,46.55167,     -10.53804
497.653,46.60333,     -10.54154
498.171,46.65500,     -10.54463
498.689,46.70667,     -10.54773
499.206,46.75833,     -10.55112
499.723,46.81000,     -10.55412
500.239,46.86167,     -10.55732
500.758,46.91333,     -10.56061
501.274,46.96500,     -10.56381
501.789,47.01667,     -10.56711
502.307,47.06833,     -10.57040
502.826,47.12000,     -10.57330
503.342,47.17167,     -10.57659
503.859,47.22333,     -10.57949
504.376,47.27500,     -10.58258
504.892,47.32667,     -10.58578
505.405,47.37833,     -10.58868
505.918,47.43000,     -10.59158
506.435,47.48167,     -10.59427
506.949,47.53333,     -10.59747
507.463,47.58500,     -10.60047
507.976,47.63667,     -10.60377
508.495,47.68833,     -10.60666
509.01,47.74000,     -10.60975
509.527,47.79167,     -10.61315
510.044,47.84333,     -10.61604
510.562,47.89500,     -10.61893
511.077,47.94667,     -10.62163
511.593,47.99833,     -10.62453
512.108,48.05000,     -10.62742
512.622,48.10167,     -10.63022
513.141,48.15333,     -10.63271
513.657,48.20500,     -10.63531
514.175,48.25667,     -10.63810
514.693,48.30833,     -10.64109
515.206,48.36000,     -10.64389
515.722,48.41167,     -10.64618
516.236,48.46333,     -10.64908
516.752,48.51500,     -10.65188
517.268,48.56667,     -10.65457
517.786,48.61833,     -10.65696
518.303,48.67000,     -10.66015
518.817,48.72167,     -10.66345
519.331,48.77333,     -10.66594
519.846,48.82500,     -10.66844
520.361,48.87667,     -10.67133
520.878,48.92833,     -10.67403
521.392,48.98000,     -10.67642
521.909,49.03167,     -10.67901
522.426,49.08333,     -10.68140
522.94,49.13500,     -10.68420
523.459,49.18667,     -10.68679
523.975,49.23833,     -10.68908
524.491,49.29000,     -10.69107
525.005,49.34167,     -10.69267
525.523,49.39333,     -10.69556
526.038,49.44500,     -10.69815
526.557,49.49667,     -10.70044
527.072,49.54833,     -10.70254
527.589,49.60000,     -10.70493
528.104,49.65167,     -10.70762
528.62,49.70333,     -10.71012
529.134,49.75500,     -10.71281
529.651,49.80667,     -10.71520
530.169,49.85833,     -10.71769
530.684,49.91000,     -10.71978
531.198,49.96167,     -10.72217
531.715,50.01333,     -10.72456
532.233,50.06500,     -10.72726
532.748,50.11667,     -10.72975
533.266,50.16833,     -10.73224
533.783,50.22000,     -10.73453
534.299,50.27167,     -10.73702
534.815,50.32333,     -10.73941
535.334,50.37500,     -10.74150
535.85,50.42667,     -10.74369
536.367,50.47833,     -10.74578
536.885,50.53000,     -10.74817
537.398,50.58167,     -10.75066
537.91,50.63333,     -10.75276
538.427,50.68500,     -10.75534
538.945,50.73667,     -10.75733
539.462,50.78833,     -10.75972
539.981,50.84000,     -10.76151
540.5,50.89167,     -10.76369
541.017,50.94333,     -10.76598
541.535,50.99500,     -10.76797
542.05,51.04667,     -10.77026
542.565,51.09833,     -10.77245
543.079,51.15000,     -10.77485
543.596,51.20167,     -10.77693
544.112,51.25333,     -10.77922
544.629,51.30500,     -10.78131
545.144,51.35667,     -10.78360
545.663,51.40833,     -10.78578
546.177,51.46000,     -10.78777
546.691,51.51167,     -10.78986
547.211,51.56333,     -10.79155
547.725,51.61500,     -10.79294
548.241,51.66667,     -10.79453
548.759,51.71833,     -10.79691
549.274,51.77000,     -10.79920
549.794,51.82167,     -10.80158
550.31,51.87333,     -10.80377
550.827,51.92500,     -10.80536
551.34,51.97667,     -10.80685
551.857,52.02833,     -10.80853
552.37,52.08000,     -10.81082
552.887,52.13167,     -10.81251
553.402,52.18333,     -10.81460
553.922,52.23500,     -10.81628
554.435,52.28667,     -10.81847
554.954,52.33833,     -10.82025
555.471,52.39000,     -10.82234
555.988,52.44167,     -10.82432
556.506,52.49333,     -10.82620
557.022,52.54500,     -10.82829
557.535,52.59667,     -10.82998
558.058,52.64833,     -10.83216
558.575,52.70000,     -10.83374
559.094,52.75167,     -10.83513
559.61,52.80333,     -10.83691
560.123,52.85500,     -10.83840
560.637,52.90667,     -10.84019
561.154,52.95833,     -10.84217
561.672,53.01000,     -10.84435
562.187,53.06167,     -10.84594
562.706,53.11333,     -10.84752
563.22,53.16500,     -10.84900
563.736,53.21667,     -10.85109
564.252,53.26833,     -10.85287
564.773,53.32000,     -10.85425
565.289,53.37167,     -10.85593
565.804,53.42333,     -10.85792
566.319,53.47500,     -10.86000
566.834,53.52667,     -10.86189
567.348,53.57833,     -10.86377
567.868,53.63000,     -10.86535
568.382,53.68167,     -10.86683
568.898,53.73333,     -10.86811
569.417,53.78500,     -10.86959
569.932,53.83667,     -10.87107
570.45,53.88833,     -10.87256
570.969,53.94000,     -10.87473
571.487,53.99167,     -10.87672
572.003,54.04333,     -10.87860
572.522,54.09500,     -10.88058
573.042,54.14667,     -10.88286
573.556,54.19833,     -10.88484
574.072,54.25000,     -10.88662
574.588,54.30167,     -10.88790
575.105,54.35333,     -10.88888
575.621,54.40500,     -10.89026
576.136,54.45667,     -10.89154
576.653,54.50833,     -10.89252
577.165,54.56000,     -10.89350
577.678,54.61167,     -10.89489
578.196,54.66333,     -10.89626
578.71,54.71500,     -10.89784
579.229,54.76667,     -10.89942
579.746,54.81833,     -10.90130
580.261,54.87000,     -10.90368
580.777,54.92167,     -10.90596
581.291,54.97333,     -10.90803
581.806,55.02500,     -10.90971
582.322,55.07667,     -10.91129
582.84,55.12833,     -10.91256
583.36,55.18000,     -10.91384
583.878,55.23167,     -10.91511
584.395,55.28333,     -10.91609
584.912,55.33500,     -10.91747
585.428,55.38667,     -10.91885
585.941,55.43833,     -10.92023
586.456,55.49000,     -10.92170
586.972,55.54167,     -10.92338
587.49,55.59333,     -10.92455
588.006,55.64500,     -10.92643
588.526,55.69667,     -10.92860
589.046,55.74833,     -10.93017
589.566,55.80000,     -10.93195
590.081,55.85167,     -10.93373
590.596,55.90333,     -10.93511
591.112,55.95500,     -10.93648
591.63,56.00667,     -10.93805
592.145,56.05833,     -10.93983
592.661,56.11000,     -10.94100
593.18,56.16167,     -10.94218
593.698,56.21333,     -10.94355
594.217,56.26500,     -10.94482
594.739,56.31667,     -10.94619
595.256,56.36833,     -10.94796
595.773,56.42000,     -10.94994
596.29,56.47167,     -10.95191
596.802,56.52333,     -10.95369
597.319,56.57500,     -10.95506
597.832,56.62667,     -10.95624
598.345,56.67833,     -10.95731
598.861,56.73000,     -10.95898
599.376,56.78167,     -10.96005
599.896,56.83333,     -10.96132
600.409,56.88500,     -10.96259
600.931,56.93667,     -10.96366
601.453,56.98833,     -10.96443
601.967,57.04000,     -10.96580
602.481,57.09167,     -10.96918
602.998,57.14333,     -10.97195
603.511,57.19500,     -10.97352
604.027,57.24667,     -10.97519
604.541,57.29833,     -10.97706
605.058,57.35000,     -10.97823
605.577,57.40167,     -10.97950
606.096,57.45333,     -10.98076
606.616,57.50500,     -10.98203
607.132,57.55667,     -10.98340
607.649,57.60833,     -10.98487
608.163,57.66000,     -10.98664
608.678,57.71167,     -10.98821
609.192,57.76333,     -10.99018
609.711,57.81500,     -10.99175
610.231,57.86667,     -10.99321
610.746,57.91833,     -10.99448
611.264,57.97000,     -10.99565
611.782,58.02167,     -10.99691
612.3,58.07333,     -10.99828
612.815,58.12500,     -10.99975
613.332,58.17667,     -11.00112
613.849,58.22833,     -11.00268
614.367,58.28000,     -11.00465
614.885,58.33167,     -11.00672
615.402,58.38333,     -11.00838
615.919,58.43500,     -11.00965
616.439,58.48667,     -11.01101
616.952,58.53833,     -11.01218
617.468,58.59000,     -11.01375
617.983,58.64167,     -11.01541
618.499,58.69333,     -11.01768
619.014,58.74500,     -11.01965
619.528,58.79667,     -11.02121
620.046,58.84833,     -11.02268
620.562,58.90000,     -11.02394
621.08,58.95167,     -11.02540
621.597,59.00333,     -11.02737
622.116,59.05500,     -11.02953
622.633,59.10667,     -11.03139
623.149,59.15833,     -11.03296
623.665,59.21000,     -11.03462
624.179,59.26167,     -11.03679
624.692,59.31333,     -11.03916
625.211,59.36500,     -11.04032
625.727,59.41667,     -11.04168
626.244,59.46833,     -11.04314
626.765,59.52000,     -11.04440
627.281,59.57167,     -11.04577
627.797,59.62333,     -11.04733
628.313,59.67500,     -11.04919
628.829,59.72667,     -11.05146
629.342,59.77833,     -11.05392
629.861,59.83000,     -11.05578
630.377,59.88167,     -11.05784
630.893,59.93333,     -11.05951
631.408,59.98500,     -11.06077
631.924,60.03667,     -11.06213
632.44,60.08833,     -11.06359
632.956,60.14000,     -11.06535
633.473,60.19167,     -11.06801
633.988,60.24333,     -11.07037
634.507,60.29500,     -11.07203
635.019,60.34667,     -11.07360
635.537,60.39833,     -11.07496
636.053,60.45000,     -11.07662
636.568,60.50167,     -11.07818
637.083,60.55333,     -11.07954
637.602,60.60500,     -11.08140
638.118,60.65667,     -11.08376
638.637,60.70833,     -11.08591
639.153,60.76000,     -11.08797
639.67,60.81167,     -11.08993
640.191,60.86333,     -11.09149
640.709,60.91500,     -11.09365
641.225,60.96667,     -11.09541
641.744,61.01833,     -11.09747
642.256,61.07000,     -11.09923
642.77,61.12167,     -11.10079
643.281,61.17333,     -11.10285
643.794,61.22500,     -11.10501
644.312,61.27667,     -11.10727
644.831,61.32833,     -11.10912
645.348,61.38000,     -11.11098
645.864,61.43167,     -11.11274
646.382,61.48333,     -11.11429
646.901,61.53500,     -11.11635
647.417,61.58667,     -11.11841
647.934,61.63833,     -11.12057
648.453,61.69000,     -11.12212
648.969,61.74167,     -11.12448
649.485,61.79333,     -11.12643
650.006,61.84500,     -11.12809
650.518,61.89667,     -11.12965
651.033,61.94833,     -11.13171
651.549,62.00000,     -11.13367
652.066,62.05167,     -11.13612
652.581,62.10333,     -11.13878
653.095,62.15500,     -11.14074
653.609,62.20667,     -11.14299
654.128,62.25833,     -11.14465
654.642,62.31000,     -11.14640
655.157,62.36167,     -11.14826
655.673,62.41333,     -11.15062
656.19,62.46500,     -11.15287
656.707,62.51667,     -11.15493
657.225,62.56833,     -11.15678
657.741,62.62000,     -11.15843
658.258,62.67167,     -11.16049
658.777,62.72333,     -11.16264
659.295,62.77500,     -11.16490
659.809,62.82667,     -11.16695
660.324,62.87833,     -11.16891
660.84,62.93000,     -11.17096
661.351,62.98167,     -11.17282
661.87,63.03333,     -11.17477
662.389,63.08500,     -11.17652
662.906,63.13667,     -11.17888
663.422,63.18833,     -11.18043
663.942,63.24000,     -11.18168
664.462,63.29167,     -11.18323
664.974,63.34333,     -11.18459
665.487,63.39500,     -11.18615
666.001,63.44667,     -11.18771
666.517,63.49833,     -11.18936
667.031,63.55000,     -11.19131
667.55,63.60167,     -11.19276
668.065,63.65333,     -11.19411
668.584,63.70500,     -11.19587
669.097,63.75667,     -11.19792
669.617,63.80833,     -11.20007
670.136,63.86000,     -11.20182
670.654,63.91167,     -11.20377
671.168,63.96333,     -11.20533
671.688,64.01500,     -11.20668
672.203,64.06667,     -11.20793
672.72,64.11833,     -11.20908
673.236,64.17000,     -11.21044
673.754,64.22167,     -11.21138
674.271,64.27333,     -11.21244
674.786,64.32500,     -11.21379
675.301,64.37667,     -11.21505
675.817,64.42833,     -11.21630
676.329,64.48000,     -11.21755
676.848,64.53167,     -11.21890
677.366,64.58333,     -11.21985
677.884,64.63500,     -11.22120
678.4,64.68667,     -11.22225
678.92,64.73833,     -11.22350
679.436,64.79000,     -11.22515
679.95,64.84167,     -11.22700
680.467,64.89333,     -11.22865
680.984,64.94500,     -11.22990
681.502,64.99667,     -11.23105
682.016,65.04833,     -11.23191
682.535,65.10000,     -11.23276
683.051,65.15167,     -11.23330
683.567,65.20333,     -11.23376
684.084,65.25500,     -11.23480
684.603,65.30667,     -11.23615
685.118,65.35833,     -11.23730
685.635,65.41000,     -11.23835
686.149,65.46167,     -11.23950
686.668,65.51333,     -11.24035
687.181,65.56500,     -11.24121
687.699,65.61667,     -11.24235
688.216,65.66833,     -11.24340
688.731,65.72000,     -11.24445
689.247,65.77167,     -11.24510
689.764,65.82333,     -11.24615
690.283,65.87500,     -11.24700
690.799,65.92667,     -11.24795
691.317,65.97833,     -11.24880
691.832,66.03000,     -11.24985
692.345,66.08167,     -11.25100
692.863,66.13333,     -11.25205
693.379,66.18500,     -11.25309
693.893,66.23667,     -11.25404
694.413,66.28833,     -11.25499
694.929,66.34000,     -11.25594
695.447,66.39167,     -11.25709
695.961,66.44333,     -11.25794
696.476,66.49500,     -11.25868
696.992,66.54667,     -11.25933
697.51,66.59833,     -11.26058
698.03,66.65000,     -11.26172
698.549,66.70167,     -11.26257
699.064,66.75333,     -11.26352
699.579,66.80500,     -11.26437
700.095,66.85667,     -11.26542
700.612,66.90833,     -11.26647
701.126,66.96000,     -11.26751
701.645,67.01167,     -11.26816
702.163,67.06333,     -11.26911
702.677,67.11500,     -11.27036
703.194,67.16667,     -11.27151
703.711,67.21833,     -11.27235
704.227,67.27000,     -11.27320
704.745,67.32167,     -11.27435
705.263,67.37333,     -11.27489
705.778,67.42500,     -11.27594
706.296,67.47667,     -11.27659
706.812,67.52833,     -11.27744
707.327,67.58000,     -11.27849
707.845,67.63167,     -11.27933
708.358,67.68333,     -11.28068
708.877,67.73500,     -11.28173
709.392,67.78667,     -11.28298
709.91,67.83833,     -11.28372
710.424,67.89000,     -11.28437
710.943,67.94167,     -11.28522
711.461,67.99333,     -11.28626
711.979,68.04500,     -11.28691
712.496,68.09667,     -11.28766
713.012,68.14833,     -11.28861
713.53,68.20000,     -11.28945
714.046,68.25167,     -11.29050
714.564,68.30333,     -11.29135
715.077,68.35500,     -11.29200
715.593,68.40667,     -11.29305
716.11,68.45833,     -11.29409
716.624,68.51000,     -11.29524
717.143,68.56167,     -11.29609
717.659,68.61333,     -11.29703
718.174,68.66500,     -11.29788
718.695,68.71667,     -11.29872
719.216,68.76833,     -11.29947
719.735,68.82000,     -11.30011
720.249,68.87167,     -11.30096
720.767,68.92333,     -11.30211
721.279,68.97500,     -11.30296
721.794,69.02667,     -11.30381
722.31,69.07833,     -11.30455
722.829,69.13000,     -11.30540
723.343,69.18167,     -11.30605
723.861,69.23333,     -11.30709
724.376,69.28500,     -11.30774
724.893,69.33667,     -11.30829
725.403,69.38833,     -11.30914
725.921,69.44000,     -11.30968
726.438,69.49167,     -11.31052
726.955,69.54333,     -11.31127
727.472,69.59500,     -11.31181
727.99,69.64667,     -11.31286
728.505,69.69833,     -11.31371
729.021,69.75000,     -11.31455
729.538,69.80167,     -11.31540
730.053,69.85333,     -11.31644
730.57,69.90500,     -11.31739
731.085,69.95667,     -11.31823
731.606,70.00833,     -11.31908
732.121,70.06000,     -11.31982
732.64,70.11167,     -11.32057
733.155,70.16333,     -11.32111
733.672,70.21500,     -11.32186
734.189,70.26667,     -11.32260
734.707,70.31833,     -11.32265
735.222,70.37000,     -11.32369
735.737,70.42167,     -11.32464
736.251,70.47333,     -11.32508
736.769,70.52500,     -11.32573
737.284,70.57667,     -11.32657
737.8,70.62833,     -11.32712
738.319,70.68000,     -11.32786
738.832,70.73167,     -11.32870
739.353,70.78333,     -11.32954
739.868,70.83500,     -11.33049
740.383,70.88667,     -11.33113
740.9,70.93833,     -11.33177
741.419,70.99000,     -11.33252
741.935,71.04167,     -11.33376
742.449,71.09333,     -11.33471
742.963,71.14500,     -11.33545
743.478,71.19667,     -11.33599
743.992,71.24833,     -11.33684
744.512,71.30000,     -11.33718
745.028,71.35167,     -11.33752
745.545,71.40333,     -11.33766
746.061,71.45500,     -11.33820
746.581,71.50667,     -11.33884
747.099,71.55833,     -11.33958
747.614,71.61000,     -11.34042
748.13,71.66167,     -11.34097
748.648,71.71333,     -11.34181
749.163,71.76500,     -11.34265
749.68,71.81667,     -11.34329
750.197,71.86833,     -11.34393
750.71,71.92000,     -11.34447
751.227,71.97167,     -11.34501
751.744,72.02333,     -11.34595
752.261,72.07500,     -11.34699
752.777,72.12667,     -11.34753
753.292,72.17833,     -11.34827
753.808,72.23000,     -11.34912
754.325,72.28167,     -11.34965
754.841,72.33333,     -11.35019
755.356,72.38500,     -11.35083
755.872,72.43667,     -11.35147
756.389,72.48833,     -11.35191
756.902,72.54000,     -11.35265
757.42,72.59167,     -11.35339
757.939,72.64333,     -11.35402
758.457,72.69500,     -11.35466
758.974,72.74667,     -11.35510
759.487,72.79833,     -11.35594
759.999,72.85000,     -11.35638
760.514,72.90167,     -11.35712
761.03,72.95333,     -11.35776
761.544,73.00500,     -11.35810
762.064,73.05667,     -11.35823
762.578,73.10833,     -11.35897
763.095,73.16000,     -11.35960
763.61,73.21167,     -11.36044
764.125,73.26333,     -11.36128
764.639,73.31500,     -11.36192
765.156,73.36667,     -11.36245
765.674,73.41833,     -11.36299
766.194,73.47000,     -11.36362
766.708,73.52167,     -11.36416
767.223,73.57333,     -11.36489
767.742,73.62500,     -11.36573
768.257,73.67667,     -11.36656
768.772,73.72833,     -11.36740
769.288,73.78000,     -11.36793
769.805,73.83167,     -11.36867
770.326,73.88333,     -11.36930
770.844,73.93500,     -11.36963
771.361,73.98667,     -11.37026
771.883,74.03833,     -11.37089
772.401,74.09000,     -11.37113
772.919,74.14167,     -11.37146
773.435,74.19333,     -11.37209
773.953,74.24500,     -11.37292
774.471,74.29667,     -11.37376
774.986,74.34833,     -11.37449
775.498,74.40000,     -11.37513
776.012,74.45167,     -11.37556
776.529,74.50333,     -11.37609
777.045,74.55500,     -11.37692
777.562,74.60667,     -11.37775
778.077,74.65833,     -11.37858
778.591,74.71000,     -11.37921
779.109,74.76167,     -11.38004
779.626,74.81333,     -11.38077
780.14,74.86500,     -11.38120
780.656,74.91667,     -11.38173
781.174,74.96833,     -11.38226
781.693,75.02000,     -11.38279
782.211,75.07167,     -11.38312
782.726,75.12333,     -11.38344
783.244,75.17500,     -11.38377
783.761,75.22667,     -11.38440
784.278,75.27833,     -11.38493
784.794,75.33000,     -11.38586
785.308,75.38167,     -11.38609
785.824,75.43333,     -11.38671
786.34,75.48500,     -11.38784
786.856,75.53667,     -11.38846
787.378,75.58833,     -11.38899
787.894,75.64000,     -11.38961
788.414,75.69167,     -11.39004
788.929,75.74333,     -11.39046
789.449,75.79500,     -11.39109
789.964,75.84667,     -11.39181
790.477,75.89833,     -11.39264
790.997,75.95000,     -11.39346
791.509,76.00167,     -11.39409
792.024,76.05333,     -11.39481
792.542,76.10500,     -11.39524
793.055,76.15667,     -11.39546
793.575,76.20833,     -11.39568
794.087,76.26000,     -11.39601
794.609,76.31167,     -11.39653
795.121,76.36333,     -11.39715
795.64,76.41500,     -11.39787
796.161,76.46667,     -11.39829
796.675,76.51833,     -11.39911
797.193,76.57000,     -11.39963
797.709,76.62167,     -11.40025
798.225,76.67333,     -11.40078
798.739,76.72500,     -11.40150
799.259,76.77667,     -11.40191
799.48,76.79833,     -11.40233