File: data-raw/TGA/L_TGA.csv
#EXPORTTYPE:                 ,DATA SINGLE
#FILE:                       ,L.ngb-st9
#FORMAT:                     ,NETZSCH5
#FTYPE:                      ,ANSI
#IDENTITY:                   ,Saras
#DECIMAL:                    ,POINT
#SEPARATOR:                  ,COMMA
#MTYPE:                      ,TG
#INSTRUMENT:                 ,NETZSCH TG 209F1 Libra
#PROJECT:                    ,IL
#DATE/TIME:                  ,9/03/2017 12:53:31 PM (UTC+11)
#CORR. FILE:                 ,
#TEMPCAL:                    ,TCALZERO.TCX
#LABORATORY:                 ,Capture Lab
#OPERATOR:                   ,NJN
#REMARK:                     ,Training run
#SAMPLE:                     ,L
#SAMPLE MASS /mg:            ,13.0009
#MATERIAL:                   ,KHCO3
#TYPE OF CRUCIBLE:           ,Al2O3
#SAMPLE CRUCIBLE MASS /mg:   ,310.8731
#REFERENCE CRUCIBLE MASS /mg:,
#M.RANGE /mg:                ,2000
#CORR. CODE:                 ,090
#RANGE:                      ,32°C/10.0(K/min)/800°C
#SEGMENT:                    ,S1/1
#SEG. 1:                     ,32°C/10.0(K/min)/800°C

##Temp./°C,Time/min,Mass loss/mg
 31.41300, 0.00000,-1.530940e-003
 31.41500, 0.05167,-3.271468e-003
 31.48100, 0.10333,-4.864190e-003
 31.81100, 0.15500,-5.245489e-003
 32.20800, 0.20667,-4.776855e-003
 32.57700, 0.25833,-5.909688e-003
 32.96000, 0.31000,-7.142172e-003
 33.39400, 0.36167,-8.420868e-003
 33.87000, 0.41333,-9.722180e-003
 34.37900, 0.46500,-1.120436e-002
 34.91200, 0.51667,-1.297519e-002
 35.47300, 0.56833,-1.469618e-002
 36.06300, 0.62000,-1.647677e-002
 36.67600, 0.67167,-1.870631e-002
 37.30200, 0.72333,-2.110330e-002
 37.94100, 0.77500,-2.411211e-002
 38.59000, 0.82667,-2.743213e-002
 39.24800, 0.87833,-3.080330e-002
 39.90800, 0.93000,-3.417652e-002
 40.56600, 0.98167,-3.735896e-002
 41.23100, 1.03333,-4.122965e-002
 41.88300, 1.08500,-4.477458e-002
 42.53300, 1.13667,-4.901270e-002
 43.17900, 1.18833,-5.341083e-002
 43.80900, 1.24000,-5.741165e-002
 44.43400, 1.29167,-6.231306e-002
 45.05000, 1.34333,-6.670067e-002
 45.65100, 1.39500,-7.154832e-002
 46.23800, 1.44667,-7.637297e-002
 46.81900, 1.49833,-8.160678e-002
 47.38900, 1.55000,-8.664512e-002
 47.94600, 1.60167,-9.196859e-002
 48.49300, 1.65333,-9.770328e-002
 49.03300, 1.70500,      -0.10314
 49.56200, 1.75667,      -0.10920
 50.08300, 1.80833,      -0.11477
 50.60100, 1.86000,      -0.12076
 51.11200, 1.91167,      -0.12697
 51.61400, 1.96333,      -0.13329
 52.11800, 2.01500,      -0.13924
 52.61500, 2.06667,      -0.14599
 53.10800, 2.11833,      -0.15245
 53.60600, 2.17000,      -0.15876
 54.09900, 2.22167,      -0.16566
 54.59100, 2.27333,      -0.17196
 55.08200, 2.32500,      -0.17887
 55.57800, 2.37667,      -0.18533
 56.07700, 2.42833,      -0.19248
 56.57300, 2.48000,      -0.19912
 57.07000, 2.53167,      -0.20638
 57.57100, 2.58333,      -0.21374
 58.07100, 2.63500,      -0.22051
 58.57600, 2.68667,      -0.22787
 59.08700, 2.73833,      -0.23478
 59.59400, 2.79000,      -0.24252
 60.10200, 2.84167,      -0.24957
 60.61400, 2.89333,      -0.25733
 61.13000, 2.94500,      -0.26491
 61.64800, 2.99667,      -0.27179
 62.16500, 3.04833,      -0.27954
 62.67900, 3.10000,      -0.28637
 63.20400, 3.15167,      -0.29423
 63.72300, 3.20333,      -0.30177
 64.24000, 3.25500,      -0.30929
 64.75800, 3.30667,      -0.31680
 65.28600, 3.35833,      -0.32508
 65.81200, 3.41000,      -0.33332
 66.33300, 3.46167,      -0.34054
 66.85400, 3.51333,      -0.34815
 67.37900, 3.56500,      -0.35587
 67.90100, 3.61667,      -0.36368
 68.42900, 3.66833,      -0.37102
 68.94500, 3.72000,      -0.37891
 69.46700, 3.77167,      -0.38611
 69.98800, 3.82333,      -0.39393
 70.50900, 3.87500,      -0.40092
 71.03000, 3.92667,      -0.40873
 71.54700, 3.97833,      -0.41652
 72.06600, 4.03000,      -0.42362
 72.58600, 4.08167,      -0.43113
 73.10500, 4.13333,      -0.43793
 73.62400, 4.18500,      -0.44524
 74.14100, 4.23667,      -0.45202
 74.66100, 4.28833,      -0.45954
 75.17900, 4.34000,      -0.46655
 75.69600, 4.39167,      -0.47354
 76.21100, 4.44333,      -0.48063
 76.73000, 4.49500,      -0.48703
 77.24800, 4.54667,      -0.49394
 77.76400, 4.59833,      -0.50043
 78.28300, 4.65000,      -0.50705
 78.79900, 4.70167,      -0.51344
 79.31900, 4.75333,      -0.51994
 79.83500, 4.80500,      -0.52654
 80.35200, 4.85667,      -0.53264
 80.86600, 4.90833,      -0.53891
 81.38600, 4.96000,      -0.54504
 81.89900, 5.01167,      -0.55112
 82.42100, 5.06333,      -0.55644
 82.93800, 5.11500,      -0.56224
 83.45400, 5.16667,      -0.56772
 83.96800, 5.21833,      -0.57362
 84.48400, 5.27000,      -0.57941
 85.00200, 5.32167,      -0.58452
 85.52200, 5.37333,      -0.59001
 86.04000, 5.42500,      -0.59472
 86.55200, 5.47667,      -0.60000
 87.06800, 5.52833,      -0.60497
 87.58600, 5.58000,      -0.60998
 88.10200, 5.63167,      -0.61458
 88.62000, 5.68333,      -0.61957
 89.13800, 5.73500,      -0.62458
 89.65700, 5.78667,      -0.62909
 90.17600, 5.83833,      -0.63368
 90.69300, 5.89000,      -0.63807
 91.21200, 5.94167,      -0.64256
 91.72900, 5.99333,      -0.64695
 92.25300, 6.04500,      -0.65116
 92.77000, 6.09667,      -0.65505
 93.28600, 6.14833,      -0.65914
 93.80800, 6.20000,      -0.66343
 94.32200, 6.25167,      -0.66731
 94.83900, 6.30333,      -0.67129
 95.36200, 6.35500,      -0.67461
 95.87500, 6.40667,      -0.67827
 96.39400, 6.45833,      -0.68187
 96.90700, 6.51000,      -0.68504
 97.42000, 6.56167,      -0.68832
 97.93700, 6.61333,      -0.69242
 98.45500, 6.66500,      -0.69592
 98.97300, 6.71667,      -0.69882
 99.48600, 6.76833,      -0.70179
100.003, 6.82000,      -0.70489
100.52, 6.87167,      -0.70831
101.034, 6.92333,      -0.71153
101.553, 6.97500,      -0.71475
102.069, 7.02667,      -0.71756
102.582, 7.07833,      -0.72076
103.101, 7.13000,      -0.72357
103.617, 7.18167,      -0.72609
104.135, 7.23333,      -0.72860
104.648, 7.28500,      -0.73140
105.165, 7.33667,      -0.73400
105.684, 7.38833,      -0.73651
106.198, 7.44000,      -0.73861
106.718, 7.49167,      -0.74032
107.238, 7.54333,      -0.74263
107.754, 7.59500,      -0.74503
108.266, 7.64667,      -0.74730
108.785, 7.69833,      -0.74941
109.298, 7.75000,      -0.75150
109.815, 7.80167,      -0.75379
110.333, 7.85333,      -0.75578
110.849, 7.90500,      -0.75757
111.363, 7.95667,      -0.75955
111.878, 8.00833,      -0.76124
112.393, 8.06000,      -0.76273
112.909, 8.11167,      -0.76422
113.426, 8.16333,      -0.76570
113.942, 8.21500,      -0.76689
114.459, 8.26667,      -0.76847
114.974, 8.31833,      -0.77015
115.493, 8.37000,      -0.77144
116.009, 8.42167,      -0.77313
116.522, 8.47333,      -0.77530
117.04, 8.52500,      -0.77738
117.556, 8.57667,      -0.77956
118.075, 8.62833,      -0.78123
118.592, 8.68000,      -0.78281
119.107, 8.73167,      -0.78378
119.621, 8.78333,      -0.78495
120.138, 8.83500,      -0.78621
120.656, 8.88667,      -0.78759
121.172, 8.93833,      -0.78897
121.69, 8.99000,      -0.79044
122.203, 9.04167,      -0.79150
122.723, 9.09333,      -0.79287
123.238, 9.14500,      -0.79403
123.752, 9.19667,      -0.79549
124.272, 9.24833,      -0.79677
124.79, 9.30000,      -0.79844
125.306, 9.35167,      -0.80010
125.822, 9.40333,      -0.80176
126.339, 9.45500,      -0.80381
126.856, 9.50667,      -0.80528
127.371, 9.55833,      -0.80673
127.888, 9.61000,      -0.80789
128.406, 9.66167,      -0.80955
128.922, 9.71333,      -0.81081
129.438, 9.76500,      -0.81206
129.952, 9.81667,      -0.81340
130.473, 9.86833,      -0.81487
130.99, 9.92000,      -0.81632
131.505, 9.97167,      -0.81767
132.02,10.02333,      -0.81932
132.535,10.07500,      -0.82147
133.053,10.12667,      -0.82352
133.567,10.17833,      -0.82507
134.087,10.23000,      -0.82663
134.602,10.28167,      -0.82797
135.117,10.33333,      -0.82922
135.634,10.38500,      -0.83077
136.15,10.43667,      -0.83232
136.672,10.48833,      -0.83437
137.186,10.54000,      -0.83611
137.705,10.59167,      -0.83766
138.223,10.64333,      -0.83891
138.74,10.69500,      -0.84045
139.261,10.74667,      -0.84190
139.78,10.79833,      -0.84324
140.297,10.85000,      -0.84518
140.814,10.90167,      -0.84712
141.331,10.95333,      -0.84925
141.848,11.00500,      -0.85049
142.364,11.05667,      -0.85223
142.882,11.10833,      -0.85357
143.398,11.16000,      -0.85480
143.913,11.21167,      -0.85604
144.43,11.26333,      -0.85737
144.945,11.31500,      -0.85911
145.467,11.36667,      -0.86055
145.983,11.41833,      -0.86269
146.499,11.47000,      -0.86492
147.018,11.52167,      -0.86716
147.538,11.57333,      -0.86830
148.051,11.62500,      -0.87023
148.569,11.67667,      -0.87226
149.086,11.72833,      -0.87389
149.601,11.78000,      -0.87533
150.118,11.83167,      -0.87676
150.636,11.88333,      -0.87849
151.155,11.93500,      -0.88033
151.669,11.98667,      -0.88246
152.183,12.03833,      -0.88468
152.699,12.09000,      -0.88692
153.219,12.14167,      -0.88885
153.736,12.19333,      -0.89058
154.25,12.24500,      -0.89200
154.769,12.29667,      -0.89383
155.284,12.34833,      -0.89586
155.799,12.40000,      -0.89789
156.317,12.45167,      -0.90012
156.834,12.50333,      -0.90205
157.349,12.55500,      -0.90418
157.868,12.60667,      -0.90601
158.383,12.65833,      -0.90783
158.896,12.71000,      -0.90976
159.418,12.76167,      -0.91190
159.934,12.81333,      -0.91412
160.449,12.86500,      -0.91605
160.966,12.91667,      -0.91807
161.484,12.96833,      -0.91990
161.999,13.02000,      -0.92193
162.514,13.07167,      -0.92395
163.033,13.12333,      -0.92628
163.547,13.17500,      -0.92841
164.063,13.22667,      -0.93063
164.581,13.27833,      -0.93296
165.101,13.33000,      -0.93509
165.615,13.38167,      -0.93751
166.132,13.43333,      -0.93974
166.647,13.48500,      -0.94177
167.165,13.53667,      -0.94379
167.679,13.58833,      -0.94632
168.2,13.64000,      -0.94895
168.715,13.69167,      -0.95117
169.232,13.74333,      -0.95360
169.751,13.79500,      -0.95603
170.264,13.84667,      -0.95885
170.78,13.89833,      -0.96127
171.296,13.95000,      -0.96410
171.814,14.00167,      -0.96673
172.33,14.05333,      -0.96935
172.846,14.10500,      -0.97198
173.364,14.15667,      -0.97491
173.882,14.20833,      -0.97814
174.399,14.26000,      -0.98126
174.915,14.31167,      -0.98469
175.432,14.36333,      -0.98792
175.948,14.41500,      -0.99084
176.465,14.46667,      -0.99397
176.978,14.51833,      -0.99769
177.499,14.57000,      -1.00113
178.013,14.62167,      -1.00435
178.527,14.67333,      -1.00807
179.048,14.72500,      -1.01141
179.561,14.77667,      -1.01514
180.077,14.82833,      -1.01906
180.594,14.88000,      -1.02329
181.113,14.93167,      -1.02743
181.629,14.98333,      -1.03135
182.149,15.03500,      -1.03559
182.664,15.08667,      -1.03972
183.182,15.13833,      -1.04485
183.697,15.19000,      -1.04907
184.214,15.24167,      -1.05391
184.732,15.29333,      -1.05834
185.246,15.34500,      -1.06337
185.763,15.39667,      -1.06860
186.283,15.44833,      -1.07344
186.797,15.50000,      -1.07917
187.315,15.55167,      -1.08440
187.832,15.60333,      -1.09023
188.35,15.65500,      -1.09577
188.869,15.70667,      -1.10130
189.385,15.75833,      -1.10724
189.901,15.81000,      -1.11357
190.423,15.86167,      -1.12041
190.938,15.91333,      -1.12694
191.452,15.96500,      -1.13377
191.971,16.01667,      -1.14041
192.487,16.06833,      -1.14765
193.006,16.12000,      -1.15459
193.521,16.17167,      -1.16223
194.036,16.22333,      -1.17006
194.551,16.27500,      -1.17850
195.065,16.32667,      -1.18604
195.583,16.37833,      -1.19448
196.1,16.43000,      -1.20292
196.616,16.48167,      -1.21087
197.135,16.53333,      -1.21931
197.652,16.58500,      -1.22775
198.167,16.63667,      -1.23749
198.684,16.68833,      -1.24654
199.203,16.74000,      -1.25648
199.717,16.79167,      -1.26663
200.234,16.84333,      -1.27607
200.755,16.89500,      -1.28682
201.271,16.94667,      -1.29697
201.788,16.99833,      -1.30821
202.304,17.05000,      -1.31886
202.819,17.10167,      -1.33060
203.339,17.15333,      -1.34205
203.854,17.20500,      -1.35400
204.371,17.25667,      -1.36634
204.889,17.30833,      -1.37829
205.402,17.36000,      -1.39134
205.921,17.41167,      -1.40389
206.436,17.46333,      -1.41713
206.95,17.51500,      -1.43308
207.468,17.56667,      -1.45483
207.988,17.61833,      -1.46518
208.5,17.67000,      -1.47712
209.016,17.72167,      -1.49617
209.536,17.77333,      -1.51262
210.051,17.82500,      -1.52397
210.569,17.87667,      -1.53602
211.088,17.92833,      -1.56047
211.607,17.98000,      -1.57072
212.122,18.03167,      -1.58336
212.639,18.08333,      -1.59811
213.155,18.13500,      -1.62196
213.67,18.18667,      -1.63261
214.19,18.23833,      -1.65736
214.706,18.29000,      -1.66781
215.22,18.34167,      -1.67956
215.74,18.39333,      -1.70321
216.256,18.44500,      -1.71326
216.771,18.49667,      -1.72570
217.289,18.54833,      -1.74826
217.802,18.60000,      -1.75910
218.32,18.65167,      -1.77155
218.835,18.70333,      -1.78360
219.352,18.75500,      -1.80785
219.869,18.80667,      -1.81790
220.388,18.85833,      -1.83036
220.901,18.91000,      -1.84271
221.42,18.96167,      -1.86566
221.934,19.01333,      -1.87541
222.449,19.06500,      -1.88726
222.966,19.11667,      -1.90001
223.482,19.16833,      -1.92316
223.998,19.22000,      -1.93291
224.514,19.27167,      -1.94336
225.03,19.32333,      -1.95561
225.545,19.37500,      -1.96776
226.061,19.42667,      -1.99132
226.577,19.47833,      -1.99987
227.095,19.53000,      -2.01082
227.611,19.58167,      -2.02317
228.127,19.63333,      -2.03522
228.643,19.68500,      -2.05967
229.16,19.73667,      -2.06863
229.678,19.78833,      -2.07998
230.196,19.84000,      -2.09093
230.711,19.89167,      -2.10958
231.228,19.94333,      -2.12453
231.746,19.99500,      -2.13548
232.262,20.04667,      -2.14773
232.78,20.09833,      -2.15969
233.297,20.15000,      -2.18304
233.81,20.20167,      -2.19279
234.329,20.25333,      -2.20554
234.845,20.30500,      -2.21769
235.361,20.35667,      -2.24095
235.877,20.40833,      -2.25150
236.394,20.46000,      -2.26405
236.911,20.51167,      -2.28940
237.424,20.56333,      -2.29925
237.944,20.61500,      -2.31191
238.458,20.66667,      -2.32426
238.977,20.71833,      -2.34871
239.493,20.77000,      -2.35926
240.01,20.82167,      -2.38402
240.529,20.87333,      -2.39437
241.046,20.92500,      -2.41652
241.567,20.97667,      -2.43338
242.083,21.02833,      -2.44343
242.6,21.08000,      -2.46638
243.116,21.13167,      -2.48263
243.631,21.18333,      -2.49318
244.148,21.23500,      -2.51553
244.666,21.28667,      -2.52759
245.18,21.33833,      -2.53924
245.695,21.39000,      -2.56659
246.215,21.44167,      -2.58444
246.732,21.49333,      -2.59709
247.248,21.54500,      -2.61895
247.762,21.59667,      -2.63540
248.281,21.64833,      -2.65325
248.795,21.70000,      -2.67020
249.311,21.75167,      -2.68785
249.825,21.80333,      -2.70501
250.343,21.85500,      -2.72326
250.86,21.90667,      -2.74151
251.375,21.95833,      -2.75846
251.892,22.01000,      -2.77642
252.413,22.06167,      -2.79357
252.925,22.11333,      -2.81182
253.441,22.16500,      -2.82947
253.957,22.21667,      -2.84832
254.474,22.26833,      -2.86627
254.991,22.32000,      -2.88513
255.511,22.37167,      -2.90408
256.028,22.42333,      -2.92193
256.543,22.47500,      -2.94108
257.06,22.52667,      -2.95903
257.577,22.57833,      -2.97808
258.094,22.63000,      -2.99633
258.613,22.68167,      -3.01579
259.125,22.73333,      -3.03534
259.644,22.78500,      -3.05389
260.157,22.83667,      -3.07404
260.671,22.88833,      -3.09229
261.19,22.94000,      -3.11174
261.705,22.99167,      -3.13089
262.222,23.04333,      -3.15044
262.742,23.09500,      -3.16979
263.26,23.14667,      -3.18955
263.776,23.19833,      -3.20890
264.29,23.25000,      -3.22934
264.804,23.30167,      -3.24960
265.323,23.35333,      -3.26955
265.838,23.40500,      -3.29020
266.355,23.45667,      -3.30945
266.869,23.50833,      -3.32990
267.385,23.56000,      -3.34945
267.905,23.61167,      -3.36990
268.42,23.66333,      -3.38955
268.938,23.71500,      -3.41120
269.453,23.76667,      -3.43265
269.97,23.81833,      -3.45240
270.489,23.87000,      -3.47375
271.006,23.92167,      -3.49379
271.522,23.97333,      -3.51524
272.038,24.02500,      -3.53569
272.553,24.07667,      -3.55714
273.069,24.12833,      -3.57759
273.587,24.18000,      -3.59944
274.106,24.23167,      -3.62149
274.624,24.28333,      -3.64234
275.14,24.33500,      -3.66479
275.655,24.38667,      -3.68553
276.173,24.43833,      -3.70818
276.688,24.49000,      -3.72913
277.203,24.54167,      -3.75248
277.72,24.59333,      -3.77383
278.24,24.64500,      -3.79687
278.757,24.69667,      -3.82052
279.272,24.74833,      -3.84277
279.79,24.80000,      -3.86631
280.305,24.85167,      -3.88866
280.821,24.90333,      -3.91271
281.337,24.95500,      -3.93526
281.851,25.00667,      -3.96040
282.364,25.05833,      -3.98295
282.881,25.11000,      -4.00740
283.398,25.16167,      -4.03284
283.914,25.21333,      -4.05619
284.429,25.26500,      -4.08113
284.944,25.31667,      -4.10558
285.462,25.36833,      -4.13162
285.978,25.42000,      -4.15567
286.495,25.47167,      -4.18212
287.015,25.52333,      -4.20716
287.532,25.57500,      -4.23390
288.051,25.62667,      -4.26095
288.566,25.67833,      -4.28649
289.083,25.73000,      -4.31394
289.597,25.78167,      -4.33988
290.113,25.83333,      -4.36773
290.629,25.88500,      -4.39457
291.148,25.93667,      -4.42301
291.663,25.98833,      -4.45136
292.181,26.04000,      -4.47800
292.696,26.09167,      -4.50734
293.209,26.14333,      -4.53469
293.729,26.19500,      -4.56443
294.247,26.24667,      -4.59267
294.763,26.29833,      -4.62271
295.283,26.35000,      -4.65155
295.802,26.40167,      -4.68240
296.32,26.45333,      -4.71154
296.834,26.50500,      -4.74298
297.35,26.55667,      -4.77432
297.871,26.60833,      -4.80466
298.389,26.66000,      -4.83680
298.903,26.71167,      -4.86764
299.42,26.76333,      -4.90108
299.936,26.81500,      -4.93122
300.454,26.86667,      -4.96446
300.972,26.91833,      -4.99640
301.487,26.97000,      -5.03074
302,27.02167,      -5.06518
302.516,27.07333,      -5.09682
303.031,27.12500,      -5.13186
303.548,27.17667,      -5.16420
304.066,27.22833,      -5.19894
304.58,27.28000,      -5.23118
305.099,27.33167,      -5.26642
305.617,27.38333,      -5.29906
306.133,27.43500,      -5.33390
306.645,27.48667,      -5.36865
307.161,27.53833,      -5.40169
307.679,27.59000,      -5.43633
308.194,27.64167,      -5.46927
308.708,27.69333,      -5.50421
309.22,27.74500,      -5.53635
309.732,27.79667,      -5.57089
310.248,27.84833,      -5.60543
310.769,27.90000,      -5.63717
311.286,27.95167,      -5.67091
311.803,28.00333,      -5.70255
312.323,28.05500,      -5.73579
312.837,28.10667,      -5.76523
313.353,28.15833,      -5.79967
313.87,28.21000,      -5.82961
314.384,28.26167,      -5.86145
314.899,28.31333,      -5.89269
315.415,28.36500,      -5.92213
315.931,28.41667,      -5.95337
316.45,28.46833,      -5.98301
316.964,28.52000,      -6.01245
317.484,28.57167,      -6.04139
318,28.62333,      -6.07093
318.517,28.67500,      -6.09837
319.031,28.72667,      -6.12821
319.546,28.77833,      -6.15695
320.064,28.83000,      -6.18359
320.58,28.88167,      -6.21173
321.096,28.93333,      -6.23757
321.612,28.98500,      -6.26511
322.129,29.03667,      -6.29095
322.645,29.08833,      -6.31749
323.161,29.14000,      -6.34203
323.68,29.19167,      -6.36797
324.195,29.24333,      -6.39421
324.714,29.29500,      -6.41815
325.227,29.34667,      -6.44359
325.74,29.39833,      -6.46703
326.26,29.45000,      -6.49117
326.776,29.50167,      -6.51451
327.293,29.55333,      -6.53884
327.808,29.60500,      -6.56118
328.324,29.65667,      -6.58462
328.84,29.70833,      -6.60726
329.358,29.76000,      -6.62810
329.876,29.81167,      -6.65114
330.394,29.86333,      -6.67248
330.909,29.91500,      -6.69412
331.425,29.96667,      -6.71356
331.945,30.01833,      -6.73500
332.463,30.07000,      -6.75494
332.981,30.12167,      -6.77537
333.499,30.17333,      -6.79551
334.02,30.22500,      -6.81405
334.539,30.27667,      -6.83349
335.057,30.32833,      -6.85163
335.575,30.38000,      -6.86987
336.088,30.43167,      -6.88721
336.604,30.48333,      -6.90585
337.117,30.53500,      -6.92278
337.632,30.58667,      -6.93972
338.15,30.63833,      -6.95126
338.663,30.69000,      -6.97260
339.179,30.74167,      -6.98714
339.694,30.79333,      -6.99778
340.211,30.84500,      -7.01001
340.726,30.89667,      -7.02485
341.24,30.94833,      -7.04669
341.753,31.00000,      -7.05733
342.269,31.05167,      -7.06957
342.787,31.10333,      -7.08810
343.304,31.15500,      -7.10334
343.82,31.20667,      -7.11428
344.336,31.25833,      -7.12521
344.853,31.31000,      -7.13745
345.368,31.36167,      -7.16039
345.89,31.41333,      -7.16782
346.407,31.46500,      -7.17826
346.923,31.51667,      -7.18950
347.44,31.56833,      -7.20133
347.953,31.62000,      -7.21257
348.472,31.67167,      -7.22441
348.992,31.72333,      -7.23584
349.508,31.77500,      -7.24768
350.022,31.82667,      -7.25862
350.538,31.87833,      -7.27016
351.054,31.93000,      -7.28039
351.568,31.98167,      -7.29153
352.084,32.03333,      -7.30246
352.604,32.08500,      -7.31290
353.118,32.13667,      -7.32343
353.638,32.18833,      -7.33327
354.157,32.24000,      -7.34380
354.672,32.29167,      -7.35354
355.187,32.34333,      -7.36358
355.704,32.39500,      -7.37331
356.219,32.44667,      -7.38335
356.735,32.49833,      -7.39318
357.251,32.55000,      -7.40242
357.763,32.60167,      -7.41235
358.283,32.65333,      -7.42128
358.802,32.70500,      -7.43072
359.316,32.75667,      -7.43945
359.835,32.80833,      -7.44849
360.349,32.86000,      -7.45742
360.863,32.91167,      -7.46666
361.378,32.96333,      -7.47569
361.894,33.01500,      -7.48412
362.412,33.06667,      -7.49326
362.927,33.11833,      -7.50189
363.444,33.17000,      -7.51112
363.964,33.22167,      -7.51946
364.482,33.27333,      -7.52819
364.997,33.32500,      -7.53622
365.517,33.37667,      -7.54505
366.035,33.42833,      -7.55399
366.552,33.48000,      -7.56162
367.069,33.53167,      -7.56995
367.586,33.58333,      -7.57778
368.1,33.63500,      -7.58642
368.616,33.68667,      -7.59395
369.134,33.73833,      -7.60228
369.649,33.79000,      -7.61011
370.165,33.84167,      -7.61854
370.681,33.89333,      -7.62687
371.195,33.94500,      -7.63451
371.71,33.99667,      -7.64334
372.227,34.04833,      -7.65127
372.743,34.10000,      -7.65960
373.258,34.15167,      -7.66713
373.775,34.20333,      -7.67466
374.293,34.25500,      -7.68269
374.81,34.30667,      -7.69082
375.327,34.35833,      -7.69895
375.843,34.41000,      -7.70678
376.358,34.46167,      -7.71461
376.872,34.51333,      -7.72234
377.391,34.56500,      -7.73017
377.906,34.61667,      -7.73760
378.424,34.66833,      -7.74592
378.94,34.72000,      -7.75335
379.456,34.77167,      -7.76148
379.97,34.82333,      -7.76921
380.486,34.87500,      -7.77654
381.006,34.92667,      -7.78457
381.523,34.97833,      -7.79219
382.036,35.03000,      -7.80032
382.553,35.08167,      -7.80755
383.068,35.13333,      -7.81568
383.586,35.18500,      -7.82260
384.101,35.23667,      -7.83063
384.618,35.28833,      -7.83896
385.134,35.34000,      -7.84609
385.65,35.39167,      -7.85391
386.165,35.44333,      -7.86124
386.684,35.49500,      -7.86876
387.204,35.54667,      -7.87609
387.719,35.59833,      -7.88381
388.232,35.65000,      -7.89124
388.748,35.70167,      -7.89907
389.265,35.75333,      -7.90679
389.78,35.80500,      -7.91421
390.299,35.85667,      -7.92174
390.813,35.90833,      -7.92876
391.329,35.96000,      -7.93619
391.845,36.01167,      -7.94361
392.361,36.06333,      -7.95154
392.874,36.11500,      -7.95876
393.39,36.16667,      -7.96619
393.905,36.21833,      -7.97381
394.421,36.27000,      -7.98083
394.939,36.32167,      -7.98815
395.456,36.37333,      -7.99497
395.971,36.42500,      -8.00240
396.49,36.47667,      -8.00902
397.011,36.52833,      -8.01634
397.525,36.58000,      -8.02336
398.045,36.63167,      -8.03078
398.561,36.68333,      -8.03860
399.078,36.73500,      -8.04512
399.595,36.78667,      -8.05254
400.11,36.83833,      -8.05967
400.623,36.89000,      -8.06689
401.138,36.94167,      -8.07411
401.653,36.99333,      -8.08123
402.17,37.04500,      -8.08785
402.685,37.09667,      -8.09497
403.199,37.14833,      -8.10219
403.714,37.20000,      -8.10921
404.231,37.25167,      -8.11633
404.746,37.30333,      -8.12345
405.264,37.35500,      -8.13086
405.783,37.40667,      -8.13758
406.301,37.45833,      -8.14490
406.815,37.51000,      -8.15232
407.334,37.56167,      -8.15914
407.847,37.61333,      -8.16626
408.361,37.66500,      -8.17308
408.88,37.71667,      -8.18040
409.395,37.76833,      -8.18702
409.916,37.82000,      -8.19443
410.43,37.87167,      -8.20085
410.948,37.92333,      -8.20817
411.467,37.97500,      -8.21518
411.982,38.02667,      -8.22150
412.5,38.07833,      -8.22852
413.015,38.13000,      -8.23484
413.528,38.18167,      -8.24206
414.05,38.23333,      -8.24867
414.566,38.28500,      -8.25549
415.081,38.33667,      -8.26231
415.596,38.38833,      -8.26942
416.112,38.44000,      -8.27634
416.627,38.49167,      -8.28306
417.144,38.54333,      -8.29007
417.66,38.59500,      -8.29669
418.176,38.64667,      -8.30351
418.696,38.69833,      -8.31042
419.212,38.75000,      -8.31734
419.728,38.80167,      -8.32375
420.245,38.85333,      -8.33067
420.761,38.90500,      -8.33718
421.276,38.95667,      -8.34380
421.791,39.00833,      -8.35052
422.308,39.06000,      -8.35683
422.823,39.11167,      -8.36365
423.341,39.16333,      -8.36996
423.854,39.21500,      -8.37688
424.37,39.26667,      -8.38289
424.887,39.31833,      -8.38970
425.405,39.37000,      -8.39642
425.922,39.42167,      -8.40233
426.438,39.47333,      -8.40905
426.955,39.52500,      -8.41566
427.469,39.57667,      -8.42238
427.983,39.62833,      -8.42819
428.499,39.68000,      -8.43471
429.011,39.73167,      -8.44082
429.528,39.78333,      -8.44703
430.046,39.83500,      -8.45384
430.564,39.88667,      -8.45996
431.081,39.93833,      -8.46667
431.599,39.99000,      -8.47278
432.114,40.04167,      -8.47899
432.632,40.09333,      -8.48501
433.146,40.14500,      -8.49132
433.664,40.19667,      -8.49743
434.178,40.24833,      -8.50395
434.694,40.30000,      -8.50936
435.212,40.35167,      -8.51557
435.73,40.40333,      -8.52158
436.249,40.45500,      -8.52759
436.764,40.50667,      -8.53370
437.282,40.55833,      -8.53931
437.798,40.61000,      -8.54563
438.315,40.66167,      -8.55104
438.834,40.71333,      -8.55695
439.35,40.76500,      -8.56256
439.867,40.81667,      -8.56877
440.385,40.86833,      -8.57508
440.899,40.92000,      -8.58059
441.413,40.97167,      -8.58691
441.928,41.02333,      -8.59242
442.443,41.07500,      -8.59833
442.96,41.12667,      -8.60364
443.476,41.17833,      -8.60885
443.989,41.23000,      -8.61466
444.509,41.28167,      -8.61987
445.026,41.33333,      -8.62527
445.541,41.38500,      -8.63068
446.058,41.43667,      -8.63629
446.576,41.48833,      -8.64180
447.092,41.54000,      -8.64711
447.61,41.59167,      -8.65242
448.123,41.64333,      -8.65803
448.639,41.69500,      -8.66384
449.156,41.74667,      -8.66875
449.674,41.79833,      -8.67366
450.189,41.85000,      -8.67857
450.708,41.90167,      -8.68357
451.224,41.95333,      -8.68818
451.739,42.00500,      -8.69319
452.253,42.05667,      -8.69830
452.768,42.10833,      -8.70351
453.284,42.16000,      -8.70882
453.8,42.21167,      -8.71353
454.317,42.26333,      -8.71843
454.83,42.31500,      -8.72324
455.347,42.36667,      -8.72775
455.865,42.41833,      -8.73215
456.38,42.47000,      -8.73706
456.901,42.52167,      -8.74186
457.417,42.57333,      -8.74637
457.935,42.62500,      -8.75128
458.447,42.67667,      -8.75559
458.962,42.72833,      -8.76039
459.483,42.78000,      -8.76490
459.998,42.83167,      -8.76910
460.512,42.88333,      -8.77351
461.029,42.93500,      -8.77802
461.544,42.98667,      -8.78202
462.06,43.03833,      -8.78623
462.576,43.09000,      -8.79073
463.093,43.14167,      -8.79534
463.609,43.19333,      -8.79975
464.125,43.24500,      -8.80405
464.64,43.29667,      -8.80846
465.158,43.34833,      -8.81246
465.674,43.40000,      -8.81656
466.189,43.45167,      -8.82027
466.706,43.50333,      -8.82447
467.221,43.55500,      -8.82828
467.741,43.60667,      -8.83188
468.255,43.65833,      -8.83619
468.771,43.71000,      -8.84009
469.288,43.76167,      -8.84439
469.798,43.81333,      -8.84811
470.313,43.86500,      -8.85221
470.828,43.91667,      -8.85571
471.346,43.96833,      -8.85921
471.864,44.02000,      -8.86351
472.382,44.07167,      -8.86712
472.901,44.12333,      -8.87102
473.418,44.17500,      -8.87482
473.935,44.22667,      -8.87872
474.453,44.27833,      -8.88252
474.968,44.33000,      -8.88653
475.484,44.38167,      -8.88993
475.997,44.43333,      -8.89334
476.511,44.48500,      -8.89674
477.026,44.53667,      -8.90015
477.543,44.58833,      -8.90354
478.062,44.64000,      -8.90694
478.578,44.69167,      -8.91085
479.088,44.74333,      -8.91435
479.608,44.79500,      -8.91775
480.122,44.84667,      -8.92095
480.637,44.89833,      -8.92446
481.154,44.95000,      -8.92816
481.67,45.00167,      -8.93126
482.187,45.05333,      -8.93446
482.708,45.10500,      -8.93695
483.226,45.15667,      -8.94005
483.741,45.20833,      -8.94326
484.258,45.26000,      -8.94616
484.773,45.31167,      -8.94906
485.285,45.36333,      -8.95186
485.802,45.41500,      -8.95476
486.32,45.46667,      -8.95786
486.832,45.51833,      -8.96126
487.35,45.57000,      -8.96366
487.868,45.62167,      -8.96696
488.384,45.67333,      -8.96976
488.903,45.72500,      -8.97236
489.419,45.77667,      -8.97506
489.936,45.82833,      -8.97775
490.452,45.88000,      -8.98045
490.969,45.93167,      -8.98295
491.487,45.98333,      -8.98545
492.002,46.03500,      -8.98785
492.518,46.08667,      -8.99045
493.034,46.13833,      -8.99265
493.55,46.19000,      -8.99535
494.065,46.24167,      -8.99735
494.58,46.29333,      -9.00004
495.095,46.34500,      -9.00294
495.609,46.39667,      -9.00514
496.125,46.44833,      -9.00734
496.639,46.50000,      -9.00944
497.159,46.55167,      -9.01203
497.673,46.60333,      -9.01403
498.19,46.65500,      -9.01613
498.71,46.70667,      -9.01832
499.226,46.75833,      -9.02062
499.744,46.81000,      -9.02231
500.261,46.86167,      -9.02421
500.774,46.91333,      -9.02651
501.294,46.96500,      -9.02840
501.808,47.01667,      -9.03060
502.323,47.06833,      -9.03260
502.839,47.12000,      -9.03470
503.355,47.17167,      -9.03629
503.872,47.22333,      -9.03819
504.389,47.27500,      -9.04038
504.906,47.32667,      -9.04278
505.421,47.37833,      -9.04468
505.938,47.43000,      -9.04657
506.454,47.48167,      -9.04887
506.97,47.53333,      -9.05016
507.485,47.58500,      -9.05196
508.001,47.63667,      -9.05366
508.516,47.68833,      -9.05535
509.033,47.74000,      -9.05725
509.55,47.79167,      -9.05924
510.063,47.84333,      -9.06154
510.577,47.89500,      -9.06334
511.093,47.94667,      -9.06503
511.61,47.99833,      -9.06713
512.127,48.05000,      -9.06852
512.641,48.10167,      -9.06971
513.159,48.15333,      -9.07111
513.677,48.20500,      -9.07290
514.196,48.25667,      -9.07489
514.709,48.30833,      -9.07669
515.225,48.36000,      -9.07869
515.743,48.41167,      -9.08058
516.26,48.46333,      -9.08238
516.771,48.51500,      -9.08417
517.287,48.56667,      -9.08547
517.803,48.61833,      -9.08656
518.319,48.67000,      -9.08785
518.834,48.72167,      -9.08935
519.354,48.77333,      -9.09134
519.87,48.82500,      -9.09343
520.388,48.87667,      -9.09542
520.905,48.92833,      -9.09721
521.425,48.98000,      -9.09871
521.938,49.03167,      -9.09980
522.455,49.08333,      -9.10120
522.971,49.13500,      -9.10249
523.488,49.18667,      -9.10348
524.005,49.23833,      -9.10478
524.519,49.29000,      -9.10617
525.033,49.34167,      -9.10807
525.549,49.39333,      -9.10996
526.065,49.44500,      -9.11215
526.582,49.49667,      -9.11414
527.097,49.54833,      -9.11563
527.617,49.60000,      -9.11692
528.133,49.65167,      -9.11801
528.649,49.70333,      -9.11891
529.165,49.75500,      -9.12000
529.685,49.80667,      -9.12119
530.199,49.85833,      -9.12258
530.715,49.91000,      -9.12417
531.229,49.96167,      -9.12577
531.748,50.01333,      -9.12796
532.263,50.06500,      -9.12905
532.779,50.11667,      -9.12974
533.297,50.16833,      -9.13183
533.812,50.22000,      -9.13422
534.331,50.27167,      -9.13601
534.844,50.32333,      -9.13710
535.363,50.37500,      -9.13829
535.877,50.42667,      -9.13908
536.395,50.47833,      -9.14007
536.91,50.53000,      -9.14117
537.425,50.58167,      -9.14236
537.943,50.63333,      -9.14374
538.459,50.68500,      -9.14523
538.973,50.73667,      -9.14743
539.489,50.78833,      -9.14901
540.006,50.84000,      -9.15070
540.522,50.89167,      -9.15169
541.036,50.94333,      -9.15299
541.552,50.99500,      -9.15447
542.069,51.04667,      -9.15606
542.584,51.09833,      -9.15745
543.103,51.15000,      -9.15854
543.62,51.20167,      -9.15962
544.137,51.25333,      -9.16091
544.654,51.30500,      -9.16200
545.167,51.35667,      -9.16319
545.685,51.40833,      -9.16418
546.199,51.46000,      -9.16587
546.715,51.51167,      -9.16706
547.23,51.56333,      -9.16835
547.745,51.61500,      -9.16953
548.26,51.66667,      -9.17062
548.776,51.71833,      -9.17201
549.296,51.77000,      -9.17329
549.808,51.82167,      -9.17458
550.324,51.87333,      -9.17547
550.839,51.92500,      -9.17686
551.359,51.97667,      -9.17804
551.875,52.02833,      -9.17923
552.393,52.08000,      -9.18031
552.908,52.13167,      -9.18160
553.43,52.18333,      -9.18278
553.943,52.23500,      -9.18427
554.456,52.28667,      -9.18486
554.975,52.33833,      -9.18604
555.493,52.39000,      -9.18743
556.007,52.44167,      -9.18872
556.523,52.49333,      -9.18960
557.041,52.54500,      -9.19019
557.556,52.59667,      -9.19137
558.074,52.64833,      -9.19276
558.588,52.70000,      -9.19394
559.107,52.75167,      -9.19513
559.626,52.80333,      -9.19621
560.143,52.85500,      -9.19739
560.665,52.90667,      -9.19847
561.181,52.95833,      -9.19966
561.696,53.01000,      -9.20054
562.213,53.06167,      -9.20183
562.728,53.11333,      -9.20301
563.243,53.16500,      -9.20430
563.759,53.21667,      -9.20558
564.277,53.26833,      -9.20656
564.79,53.32000,      -9.20775
565.306,53.37167,      -9.20883
565.822,53.42333,      -9.21012
566.34,53.47500,      -9.21110
566.857,53.52667,      -9.21238
567.37,53.57833,      -9.21366
567.887,53.63000,      -9.21485
568.406,53.68167,      -9.21603
568.92,53.73333,      -9.21711
569.436,53.78500,      -9.21829
569.953,53.83667,      -9.21957
570.47,53.88833,      -9.22075
570.986,53.94000,      -9.22183
571.501,53.99167,      -9.22282
572.017,54.04333,      -9.22410
572.534,54.09500,      -9.22528
573.051,54.14667,      -9.22656
573.565,54.19833,      -9.22784
574.081,54.25000,      -9.22912
574.601,54.30167,      -9.23020
575.115,54.35333,      -9.23148
575.626,54.40500,      -9.23247
576.144,54.45667,      -9.23374
576.664,54.50833,      -9.23482
577.18,54.56000,      -9.23600
577.699,54.61167,      -9.23727
578.218,54.66333,      -9.23825
578.737,54.71500,      -9.23953
579.253,54.76667,      -9.24091
579.768,54.81833,      -9.24199
580.285,54.87000,      -9.24327
580.798,54.92167,      -9.24465
581.322,54.97333,      -9.24562
581.842,55.02500,      -9.24690
582.359,55.07667,      -9.24797
582.875,55.12833,      -9.24905
583.388,55.18000,      -9.25004
583.9,55.23167,      -9.25102
584.414,55.28333,      -9.25230
584.931,55.33500,      -9.25337
585.449,55.38667,      -9.25475
585.966,55.43833,      -9.25592
586.483,55.49000,      -9.25740
587.002,55.54167,      -9.25867
587.519,55.59333,      -9.26015
588.037,55.64500,      -9.26162
588.553,55.69667,      -9.26270
589.071,55.74833,      -9.26377
589.583,55.80000,      -9.26505
590.095,55.85167,      -9.26613
590.606,55.90333,      -9.26701
591.124,55.95500,      -9.26858
591.639,56.00667,      -9.26996
592.156,56.05833,      -9.27093
592.673,56.11000,      -9.27230
593.192,56.16167,      -9.27337
593.709,56.21333,      -9.27474
594.228,56.26500,      -9.27582
594.746,56.31667,      -9.27699
595.264,56.36833,      -9.27826
595.782,56.42000,      -9.27944
596.3,56.47167,      -9.28081
596.818,56.52333,      -9.28198
597.332,56.57500,      -9.28316
597.848,56.62667,      -9.28443
598.364,56.67833,      -9.28600
598.88,56.73000,      -9.28768
599.399,56.78167,      -9.28974
599.917,56.83333,      -9.29141
600.433,56.88500,      -9.29289
600.948,56.93667,      -9.29416
601.464,56.98833,      -9.29513
601.983,57.04000,      -9.29610
602.5,57.09167,      -9.29737
603.018,57.14333,      -9.29844
603.536,57.19500,      -9.29981
604.055,57.24667,      -9.30088
604.571,57.29833,      -9.30245
605.089,57.35000,      -9.30432
605.602,57.40167,      -9.30609
606.118,57.45333,      -9.30746
606.638,57.50500,      -9.30893
607.16,57.55667,      -9.31009
607.676,57.60833,      -9.31116
608.193,57.66000,      -9.31233
608.711,57.71167,      -9.31350
609.228,57.76333,      -9.31477
609.743,57.81500,      -9.31604
610.259,57.86667,      -9.31701
610.776,57.91833,      -9.31828
611.291,57.97000,      -9.31964
611.808,58.02167,      -9.32111
612.332,58.07333,      -9.32277
612.851,58.12500,      -9.32464
613.368,58.17667,      -9.32661
613.88,58.22833,      -9.32798
614.396,58.28000,      -9.32925
614.908,58.33167,      -9.33042
615.424,58.38333,      -9.33148
615.94,58.43500,      -9.33255
616.461,58.48667,      -9.33381
616.979,58.53833,      -9.33487
617.498,58.59000,      -9.33604
618.013,58.64167,      -9.33760
618.532,58.69333,      -9.33937
619.051,58.74500,      -9.34133
619.571,58.79667,      -9.34290
620.088,58.84833,      -9.34386
620.605,58.90000,      -9.34493
621.122,58.95167,      -9.34609
621.639,59.00333,      -9.34736
622.156,59.05500,      -9.34852
622.671,59.10667,      -9.34979
623.189,59.15833,      -9.35125
623.703,59.21000,      -9.35282
624.223,59.26167,      -9.35398
624.73,59.31333,      -9.35515
625.249,59.36500,      -9.35641
625.764,59.41667,      -9.35747
626.278,59.46833,      -9.35884
626.798,59.52000,      -9.36029
627.318,59.57167,      -9.36165
627.842,59.62333,      -9.36281
628.362,59.67500,      -9.36387
628.878,59.72667,      -9.36514
629.394,59.77833,      -9.36610
629.912,59.83000,      -9.36726
630.428,59.88167,      -9.36833
630.944,59.93333,      -9.36949
631.456,59.98500,      -9.37046
631.97,60.03667,      -9.37162
632.486,60.08833,      -9.37278
633,60.14000,      -9.37384
633.521,60.19167,      -9.37480
634.036,60.24333,      -9.37576
634.55,60.29500,      -9.37672
635.07,60.34667,      -9.37778
635.584,60.39833,      -9.37864
636.097,60.45000,      -9.37951
636.61,60.50167,      -9.38037
637.127,60.55333,      -9.38133
637.645,60.60500,      -9.38229
638.161,60.65667,      -9.38324
638.676,60.70833,      -9.38441
639.191,60.76000,      -9.38537
639.707,60.81167,      -9.38633
640.223,60.86333,      -9.38759
640.735,60.91500,      -9.38845
641.252,60.96667,      -9.38941
641.764,61.01833,      -9.39047
642.278,61.07000,      -9.39113
642.794,61.12167,      -9.39188
643.309,61.17333,      -9.39264
643.826,61.22500,      -9.39350
644.344,61.27667,      -9.39446
644.86,61.32833,      -9.39541
645.379,61.38000,      -9.39617
645.898,61.43167,      -9.39692
646.419,61.48333,      -9.39778
646.934,61.53500,      -9.39874
647.45,61.58667,      -9.39960
647.961,61.63833,      -9.40046
648.473,61.69000,      -9.40142
648.989,61.74167,      -9.40228
649.507,61.79333,      -9.40313
650.024,61.84500,      -9.40399
650.54,61.89667,      -9.40484
651.06,61.94833,      -9.40600
651.581,62.00000,      -9.40705
652.097,62.05167,      -9.40811
652.616,62.10333,      -9.40896
653.13,62.15500,      -9.40942
653.647,62.20667,      -9.40988
654.162,62.25833,      -9.41074
654.679,62.31000,      -9.41159
655.194,62.36167,      -9.41245
655.711,62.41333,      -9.41320
656.227,62.46500,      -9.41416
656.741,62.51667,      -9.41512
657.26,62.56833,      -9.41597
657.776,62.62000,      -9.41652
658.297,62.67167,      -9.41708
658.809,62.72333,      -9.41783
659.326,62.77500,      -9.41859
659.844,62.82667,      -9.41944
660.355,62.87833,      -9.42040
660.868,62.93000,      -9.42116
661.384,62.98167,      -9.42171
661.902,63.03333,      -9.42256
662.42,63.08500,      -9.42352
662.938,63.13667,      -9.42437
663.458,63.18833,      -9.42542
663.976,63.24000,      -9.42627
664.492,63.29167,      -9.42713
665.01,63.34333,      -9.42778
665.523,63.39500,      -9.42854
666.041,63.44667,      -9.42939
666.558,63.49833,      -9.42984
667.074,63.55000,      -9.43060
667.588,63.60167,      -9.43175
668.104,63.65333,      -9.43270
668.62,63.70500,      -9.43366
669.136,63.75667,      -9.43461
669.65,63.80833,      -9.43536
670.173,63.86000,      -9.43611
670.689,63.91167,      -9.43686
671.208,63.96333,      -9.43741
671.727,64.01500,      -9.43817
672.244,64.06667,      -9.43892
672.757,64.11833,      -9.43977
673.268,64.17000,      -9.44063
673.784,64.22167,      -9.44148
674.3,64.27333,      -9.44213
674.814,64.32500,      -9.44289
675.331,64.37667,      -9.44374
675.852,64.42833,      -9.44448
676.372,64.48000,      -9.44523
676.886,64.53167,      -9.44589
677.402,64.58333,      -9.44654
677.915,64.63500,      -9.44729
678.429,64.68667,      -9.44795
678.942,64.73833,      -9.44850
679.456,64.79000,      -9.44895
679.972,64.84167,      -9.44990
680.485,64.89333,      -9.45075
681.001,64.94500,      -9.45170
681.518,64.99667,      -9.45245
682.038,65.04833,      -9.45340
682.558,65.10000,      -9.45424
683.075,65.15167,      -9.45529
683.594,65.20333,      -9.45595
684.114,65.25500,      -9.45669
684.629,65.30667,      -9.45754
685.142,65.35833,      -9.45840
685.659,65.41000,      -9.45935
686.172,65.46167,      -9.46010
686.688,65.51333,      -9.46105
687.207,65.56500,      -9.46160
687.725,65.61667,      -9.46204
688.24,65.66833,      -9.46289
688.759,65.72000,      -9.46374
689.274,65.77167,      -9.46459
689.792,65.82333,      -9.46534
690.309,65.87500,      -9.46599
690.828,65.92667,      -9.46684
691.341,65.97833,      -9.46739
691.855,66.03000,      -9.46804
692.375,66.08167,      -9.46909
692.896,66.13333,      -9.46993
693.413,66.18500,      -9.47078
693.932,66.23667,      -9.47163
694.449,66.28833,      -9.47228
694.968,66.34000,      -9.47282
695.485,66.39167,      -9.47337
696.001,66.44333,      -9.47422
696.515,66.49500,      -9.47497
697.028,66.54667,      -9.47542
697.545,66.59833,      -9.47607
698.062,66.65000,      -9.47652
698.575,66.70167,      -9.47737
699.091,66.75333,      -9.47812
699.61,66.80500,      -9.47906
700.123,66.85667,      -9.47991
700.643,66.90833,      -9.48086
701.156,66.96000,      -9.48151
701.675,67.01167,      -9.48215
702.188,67.06333,      -9.48240
702.705,67.11500,      -9.48325
703.224,67.16667,      -9.48410
703.741,67.21833,      -9.48524
704.261,67.27000,      -9.48589
704.779,67.32167,      -9.48663
705.298,67.37333,      -9.48748
705.814,67.42500,      -9.48813
706.33,67.47667,      -9.48868
706.847,67.52833,      -9.48953
707.36,67.58000,      -9.49018
707.875,67.63167,      -9.49083
708.394,67.68333,      -9.49147
708.909,67.73500,      -9.49192
709.427,67.78667,      -9.49257
709.947,67.83833,      -9.49311
710.462,67.89000,      -9.49396
710.978,67.94167,      -9.49461
711.494,67.99333,      -9.49526
712.014,68.04500,      -9.49590
712.53,68.09667,      -9.49645
713.043,68.14833,      -9.49720
713.558,68.20000,      -9.49785
714.076,68.25167,      -9.49839
714.591,68.30333,      -9.49914
715.106,68.35500,      -9.50009
715.624,68.40667,      -9.50104
716.14,68.45833,      -9.50188
716.655,68.51000,      -9.50263
717.169,68.56167,      -9.50358
717.688,68.61333,      -9.50412
718.204,68.66500,      -9.50447
718.721,68.71667,      -9.50452
719.238,68.76833,      -9.50616
719.759,68.82000,      -9.50751
720.277,68.87167,      -9.50845
720.79,68.92333,      -9.50920
721.307,68.97500,      -9.50965
721.82,69.02667,      -9.51020
722.339,69.07833,      -9.51085
722.854,69.13000,      -9.51119
723.367,69.18167,      -9.51104
723.884,69.23333,      -9.51229
724.399,69.28500,      -9.51343
724.916,69.33667,      -9.51458
725.439,69.38833,      -9.51532
725.955,69.44000,      -9.51597
726.473,69.49167,      -9.51671
726.988,69.54333,      -9.51736
727.501,69.59500,      -9.51791
728.014,69.64667,      -9.51856
728.532,69.69833,      -9.51920
729.045,69.75000,      -9.51985
729.565,69.80167,      -9.52059
730.079,69.85333,      -9.52124
730.597,69.90500,      -9.52178
731.113,69.95667,      -9.52233
731.631,70.00833,      -9.52307
732.15,70.06000,      -9.52341
732.664,70.11167,      -9.52416
733.18,70.16333,      -9.52511
733.698,70.21500,      -9.52605
734.212,70.26667,      -9.52680
734.727,70.31833,      -9.52774
735.244,70.37000,      -9.52859
735.765,70.42167,      -9.52923
736.279,70.47333,      -9.52917
736.794,70.52500,      -9.53002
737.31,70.57667,      -9.53126
737.824,70.62833,      -9.53241
738.343,70.68000,      -9.53345
738.858,70.73167,      -9.53400
739.373,70.78333,      -9.53474
739.892,70.83500,      -9.53548
740.411,70.88667,      -9.53632
740.927,70.93833,      -9.53687
741.445,70.99000,      -9.53711
741.961,71.04167,      -9.53765
742.476,71.09333,      -9.53890
742.992,71.14500,      -9.53954
743.508,71.19667,      -9.53988
744.026,71.24833,      -9.54052
744.543,71.30000,      -9.54117
745.056,71.35167,      -9.54211
745.571,71.40333,      -9.54295
746.085,71.45500,      -9.54380
746.602,71.50667,      -9.54454
747.119,71.55833,      -9.54528
747.637,71.61000,      -9.54592
748.154,71.66167,      -9.54666
748.667,71.71333,      -9.54710
749.189,71.76500,      -9.54734
749.706,71.81667,      -9.54798
750.221,71.86833,      -9.54892
750.74,71.92000,      -9.54966
751.259,71.97167,      -9.55020
751.777,72.02333,      -9.55094
752.29,72.07500,      -9.55189
752.802,72.12667,      -9.55283
753.316,72.17833,      -9.55357
753.835,72.23000,      -9.55441
754.351,72.28167,      -9.55515
754.867,72.33333,      -9.55599
755.379,72.38500,      -9.55693
755.899,72.43667,      -9.55776
756.417,72.48833,      -9.55860
756.934,72.54000,      -9.55934
757.449,72.59167,      -9.56008
757.965,72.64333,      -9.56062
758.482,72.69500,      -9.56146
758.998,72.74667,      -9.56230
759.512,72.79833,      -9.56314
760.026,72.85000,      -9.56397
760.543,72.90167,      -9.56461
761.062,72.95333,      -9.56515
761.581,73.00500,      -9.56558
762.099,73.05667,      -9.56622
762.617,73.10833,      -9.56695
763.135,73.16000,      -9.56759
763.651,73.21167,      -9.56863
764.168,73.26333,      -9.56966
764.685,73.31500,      -9.57040
765.2,73.36667,      -9.57094
765.717,73.41833,      -9.57147
766.232,73.47000,      -9.57191
766.751,73.52167,      -9.57264
767.267,73.57333,      -9.57328
767.785,73.62500,      -9.57401
768.299,73.67667,      -9.57495
768.815,73.72833,      -9.57578
769.329,73.78000,      -9.57682
769.845,73.83167,      -9.57775
770.363,73.88333,      -9.57849
770.883,73.93500,      -9.57942
771.4,73.98667,      -9.58035
771.916,74.03833,      -9.58129
772.434,74.09000,      -9.58212
772.951,74.14167,      -9.58265
773.464,74.19333,      -9.58319
773.978,74.24500,      -9.58402
774.496,74.29667,      -9.58485
775.011,74.34833,      -9.58578
775.53,74.40000,      -9.58661
776.049,74.45167,      -9.58724
776.563,74.50333,      -9.58798
777.078,74.55500,      -9.58841
777.595,74.60667,      -9.58934
778.11,74.65833,      -9.59007
778.627,74.71000,      -9.59090
779.143,74.76167,      -9.59173
779.659,74.81333,      -9.59226
780.177,74.86500,      -9.59329
780.692,74.91667,      -9.59392
781.211,74.96833,      -9.59465
781.725,75.02000,      -9.59538
782.241,75.07167,      -9.59641
782.756,75.12333,      -9.59724
783.271,75.17500,      -9.59787
783.787,75.22667,      -9.59879
784.302,75.27833,      -9.59942
784.819,75.33000,      -9.59995
785.333,75.38167,      -9.60068
785.855,75.43333,      -9.60150
786.372,75.48500,      -9.60232
786.887,75.53667,      -9.60325
787.405,75.58833,      -9.60438
787.921,75.64000,      -9.60540
788.443,75.69167,      -9.60623
788.961,75.74333,      -9.60715
789.476,75.79500,      -9.60798
789.986,75.84667,      -9.60851
790.507,75.89833,      -9.60893
791.024,75.95000,      -9.60935
791.542,76.00167,      -9.60998
792.058,76.05333,      -9.61060
792.578,76.10500,      -9.61122
793.096,76.15667,      -9.61215
793.612,76.20833,      -9.61297
794.131,76.26000,      -9.61419
794.648,76.31167,      -9.61511
795.166,76.36333,      -9.61603
795.684,76.41500,      -9.61685
796.203,76.46667,      -9.61767
796.725,76.51833,      -9.61819
797.244,76.57000,      -9.61911
797.757,76.62167,      -9.61994
798.275,76.67333,      -9.62066
798.786,76.72500,      -9.62128
799.304,76.77667,      -9.62180
799.401,76.78667,      -9.62177