File: data-raw/TGA/LL_TGA.csv
#EXPORTTYPE:                 ,DATA SINGLE
#FILE:                       ,LL.ngb-st9
#FORMAT:                     ,NETZSCH5
#FTYPE:                      ,ANSI
#IDENTITY:                   ,Saras
#DECIMAL:                    ,POINT
#SEPARATOR:                  ,COMMA
#MTYPE:                      ,TG
#INSTRUMENT:                 ,NETZSCH TG 209F1 Libra
#PROJECT:                    ,IL
#DATE/TIME:                  ,20/03/2017 2:16:03 PM (UTC+11)
#CORR. FILE:                 ,
#TEMPCAL:                    ,TCALZERO.TCX
#LABORATORY:                 ,Capture Lab
#OPERATOR:                   ,NJN
#REMARK:                     ,Training run
#SAMPLE:                     ,LL
#SAMPLE MASS /mg:            ,18.2313
#MATERIAL:                   ,zeolite
#TYPE OF CRUCIBLE:           ,Al2O3
#SAMPLE CRUCIBLE MASS /mg:   ,311.1406
#REFERENCE CRUCIBLE MASS /mg:,
#M.RANGE /mg:                ,2000
#CORR. CODE:                 ,090
#RANGE:                      ,32°C/10.0(K/min)/800°C
#SEGMENT:                    ,S1/1
#SEG. 1:                     ,32°C/10.0(K/min)/800°C

##Temp./°C,Time/min,Mass loss/mg
 31.60800, 0.00000,-1.675455e-003
 31.61100, 0.05167,-3.876612e-003
 31.66900, 0.10333,-5.305411e-003
 31.99200, 0.15500,-5.225635e-003
 32.38500, 0.20667,-5.031939e-003
 32.74500, 0.25833,-6.205856e-003
 33.11200, 0.31000,-7.743537e-003
 33.53000, 0.36167,-9.253505e-003
 33.99000, 0.41333,-1.072346e-002
 34.48200, 0.46500,-1.268457e-002
 34.99600, 0.51667,-1.448237e-002
 35.54300, 0.56833,-1.640410e-002
 36.11000, 0.62000,-1.855429e-002
 36.70000, 0.67167,-2.105297e-002
 37.31000, 0.72333,-2.399089e-002
 37.93500, 0.77500,-2.781495e-002
 38.57100, 0.82667,-3.188678e-002
 39.21600, 0.87833,-3.527136e-002
 39.86700, 0.93000,-3.920320e-002
 40.51700, 0.98167,-4.313537e-002
 41.16800, 1.03333,-4.708022e-002
 41.82300, 1.08500,-5.113095e-002
 42.46700, 1.13667,-5.565999e-002
 43.10300, 1.18833,-6.003761e-002
 43.73600, 1.24000,-6.501746e-002
 44.35700, 1.29167,-7.004054e-002
 44.97400, 1.34333,-7.536388e-002
 45.57600, 1.39500,-8.071250e-002
 46.17400, 1.44667,-8.580753e-002
 46.75000, 1.49833,-9.183043e-002
 47.32200, 1.55000,-9.765823e-002
 47.88400, 1.60167,      -0.10383
 48.44200, 1.65333,      -0.11011
 48.98500, 1.70500,      -0.11604
 49.51900, 1.75667,      -0.12311
 50.05300, 1.80833,      -0.12962
 50.56900, 1.86000,      -0.13658
 51.08800, 1.91167,      -0.14378
 51.59600, 1.96333,      -0.15100
 52.10200, 2.01500,      -0.15814
 52.60500, 2.06667,      -0.16589
 53.10400, 2.11833,      -0.17365
 53.60100, 2.17000,      -0.18123
 54.10000, 2.22167,      -0.18933
 54.59400, 2.27333,      -0.19753
 55.08500, 2.32500,      -0.20572
 55.58300, 2.37667,      -0.21376
 56.08100, 2.42833,      -0.22240
 56.57200, 2.48000,      -0.23072
 57.07200, 2.53167,      -0.23987
 57.57200, 2.58333,      -0.24873
 58.07500, 2.63500,      -0.25730
 58.57200, 2.68667,      -0.26684
 59.08000, 2.73833,      -0.27562
 59.58900, 2.79000,      -0.28530
 60.09700, 2.84167,      -0.29426
 60.60700, 2.89333,      -0.30410
 61.11900, 2.94500,      -0.31348
 61.63200, 2.99667,      -0.32353
 62.14600, 3.04833,      -0.33328
 62.66600, 3.10000,      -0.34336
 63.18300, 3.15167,      -0.35369
 63.70000, 3.20333,      -0.36363
 64.22100, 3.25500,      -0.37449
 64.74300, 3.30667,      -0.38472
 65.26200, 3.35833,      -0.39515
 65.78300, 3.41000,      -0.40537
 66.30200, 3.46167,      -0.41608
 66.82700, 3.51333,      -0.42632
 67.34700, 3.56500,      -0.43714
 67.86900, 3.61667,      -0.44786
 68.39300, 3.66833,      -0.45828
 68.91700, 3.72000,      -0.46901
 69.43900, 3.77167,      -0.47932
 69.96400, 3.82333,      -0.49044
 70.48200, 3.87500,      -0.50072
 71.00500, 3.92667,      -0.51184
 71.52800, 3.97833,      -0.52255
 72.05100, 4.03000,      -0.53257
 72.57100, 4.08167,      -0.54357
 73.09700, 4.13333,      -0.55358
 73.61400, 4.18500,      -0.56456
 74.13100, 4.23667,      -0.57446
 74.65100, 4.28833,      -0.58485
 75.17100, 4.34000,      -0.59476
 75.69100, 4.39167,      -0.60497
 76.20900, 4.44333,      -0.61576
 76.72800, 4.49500,      -0.62476
 77.25000, 4.54667,      -0.63487
 77.76300, 4.59833,      -0.64426
 78.28400, 4.65000,      -0.65547
 78.80500, 4.70167,      -0.67097
 79.32700, 4.75333,      -0.67950
 79.84800, 4.80500,      -0.68549
 80.36600, 4.85667,      -0.69288
 80.88500, 4.90833,      -0.70107
 81.40100, 4.96000,      -0.70925
 81.91800, 5.01167,      -0.71784
 82.43400, 5.06333,      -0.72573
 82.95200, 5.11500,      -0.73442
 83.46700, 5.16667,      -0.74132
 83.98200, 5.21833,      -0.74931
 84.49900, 5.27000,      -0.75691
 85.01400, 5.32167,      -0.76420
 85.53100, 5.37333,      -0.77189
 86.04300, 5.42500,      -0.77897
 86.56000, 5.47667,      -0.78677
 87.07500, 5.52833,      -0.79327
 87.59400, 5.58000,      -0.79967
 88.11100, 5.63167,      -0.80617
 88.62600, 5.68333,      -0.81228
 89.14600, 5.73500,      -0.81827
 89.65900, 5.78667,      -0.82417
 90.18200, 5.83833,      -0.82978
 90.70100, 5.89000,      -0.83537
 91.21800, 5.94167,      -0.84117
 91.73900, 5.99333,      -0.84647
 92.25300, 6.04500,      -0.85165
 92.77200, 6.09667,      -0.85633
 93.29300, 6.14833,      -0.86093
 93.81000, 6.20000,      -0.86522
 94.32700, 6.25167,      -0.86991
 94.84600, 6.30333,      -0.87481
 95.36100, 6.35500,      -0.87909
 95.88200, 6.40667,      -0.88269
 96.39900, 6.45833,      -0.88678
 96.91600, 6.51000,      -0.89107
 97.43300, 6.56167,      -0.89465
 97.94900, 6.61333,      -0.89814
 98.46300, 6.66500,      -0.90102
 98.98100, 6.71667,      -0.90382
 99.49700, 6.76833,      -0.90731
100.014, 6.82000,      -0.91020
100.532, 6.87167,      -0.91312
101.047, 6.92333,      -0.91603
101.557, 6.97500,      -0.91902
102.076, 7.02667,      -0.92174
102.589, 7.07833,      -0.92425
103.109, 7.13000,      -0.92668
103.624, 7.18167,      -0.92928
104.137, 7.23333,      -0.93138
104.651, 7.28500,      -0.93318
105.168, 7.33667,      -0.93520
105.682, 7.38833,      -0.93709
106.199, 7.44000,      -0.93910
106.716, 7.49167,      -0.94081
107.234, 7.54333,      -0.94230
107.75, 7.59500,      -0.94361
108.268, 7.64667,      -0.94481
108.782, 7.69833,      -0.94610
109.297, 7.75000,      -0.94718
109.812, 7.80167,      -0.94839
110.333, 7.85333,      -0.94958
110.844, 7.90500,      -0.95056
111.359, 7.95667,      -0.95155
111.876, 8.00833,      -0.95264
112.389, 8.06000,      -0.95403
112.905, 8.11167,      -0.95511
113.422, 8.16333,      -0.95620
113.937, 8.21500,      -0.95708
114.451, 8.26667,      -0.95806
114.965, 8.31833,      -0.95904
115.481, 8.37000,      -0.95993
115.997, 8.42167,      -0.96071
116.514, 8.47333,      -0.96169
117.031, 8.52500,      -0.96257
117.546, 8.57667,      -0.96336
118.065, 8.62833,      -0.96414
118.579, 8.68000,      -0.96491
119.099, 8.73167,      -0.96579
119.615, 8.78333,      -0.96625
120.129, 8.83500,      -0.96682
120.647, 8.88667,      -0.96739
121.166, 8.93833,      -0.96797
121.683, 8.99000,      -0.96864
122.198, 9.04167,      -0.96919
122.715, 9.09333,      -0.96988
123.227, 9.14500,      -0.97032
123.744, 9.19667,      -0.97080
124.264, 9.24833,      -0.97147
124.781, 9.30000,      -0.97213
125.296, 9.35167,      -0.97288
125.81, 9.40333,      -0.97344
126.33, 9.45500,      -0.97401
126.845, 9.50667,      -0.97457
127.361, 9.55833,      -0.97523
127.881, 9.61000,      -0.97570
128.395, 9.66167,      -0.97615
128.912, 9.71333,      -0.97661
129.429, 9.76500,      -0.97706
129.949, 9.81667,      -0.97752
130.462, 9.86833,      -0.97797
130.978, 9.92000,      -0.97842
131.491, 9.97167,      -0.97896
132.009,10.02333,      -0.97962
132.528,10.07500,      -0.98028
133.043,10.12667,      -0.98083
133.562,10.17833,      -0.98148
134.079,10.23000,      -0.98173
134.594,10.28167,      -0.98187
135.113,10.33333,      -0.98233
135.633,10.38500,      -0.98308
136.151,10.43667,      -0.98363
136.668,10.48833,      -0.98417
137.188,10.54000,      -0.98482
137.703,10.59167,      -0.98546
138.214,10.64333,      -0.98628
138.731,10.69500,      -0.98693
139.245,10.74667,      -0.98767
139.762,10.79833,      -0.98852
140.279,10.85000,      -0.98907
140.799,10.90167,      -0.98961
141.316,10.95333,      -0.99015
141.834,11.00500,      -0.99089
142.349,11.05667,      -0.99143
142.866,11.10833,      -0.99217
143.381,11.16000,      -0.99280
143.901,11.21167,      -0.99335
144.416,11.26333,      -0.99418
144.935,11.31500,      -0.99492
145.452,11.36667,      -0.99556
145.97,11.41833,      -0.99660
146.486,11.47000,      -0.99752
147.003,11.52167,      -0.99876
147.521,11.57333,      -0.99980
148.035,11.62500,      -1.00103
148.553,11.67667,      -1.00166
149.072,11.72833,      -1.00250
149.588,11.78000,      -1.00333
150.107,11.83167,      -1.00396
150.623,11.88333,      -1.00499
151.139,11.93500,      -1.00582
151.656,11.98667,      -1.00676
152.175,12.03833,      -1.00769
152.688,12.09000,      -1.00871
153.209,12.14167,      -1.01006
153.726,12.19333,      -1.01149
154.244,12.24500,      -1.01271
154.76,12.29667,      -1.01374
155.276,12.34833,      -1.01507
155.793,12.40000,      -1.01619
156.307,12.45167,      -1.01762
156.825,12.50333,      -1.01885
157.339,12.55500,      -1.02007
157.854,12.60667,      -1.02141
158.37,12.65833,      -1.02274
158.886,12.71000,      -1.02426
159.401,12.76167,      -1.02559
159.915,12.81333,      -1.02721
160.434,12.86500,      -1.02855
160.954,12.91667,      -1.03028
161.467,12.96833,      -1.03180
161.983,13.02000,      -1.03363
162.506,13.07167,      -1.03537
163.022,13.12333,      -1.03699
163.537,13.17500,      -1.03841
164.058,13.22667,      -1.04034
164.572,13.27833,      -1.04276
165.088,13.33000,      -1.04479
165.604,13.38167,      -1.04632
166.124,13.43333,      -1.04765
166.641,13.48500,      -1.04917
167.16,13.53667,      -1.05060
167.676,13.58833,      -1.05202
168.192,13.64000,      -1.05425
168.706,13.69167,      -1.05647
169.222,13.74333,      -1.05929
169.737,13.79500,      -1.06162
170.254,13.84667,      -1.06405
170.769,13.89833,      -1.06607
171.286,13.95000,      -1.06800
171.801,14.00167,      -1.06992
172.318,14.05333,      -1.07226
172.835,14.10500,      -1.07428
173.35,14.15667,      -1.07621
173.871,14.20833,      -1.07824
174.385,14.26000,      -1.08046
174.903,14.31167,      -1.08259
175.419,14.36333,      -1.08482
175.937,14.41500,      -1.08765
176.457,14.46667,      -1.09017
176.975,14.51833,      -1.09321
177.492,14.57000,      -1.09593
178.007,14.62167,      -1.09846
178.523,14.67333,      -1.10098
179.041,14.72500,      -1.10351
179.559,14.77667,      -1.10644
180.075,14.82833,      -1.10937
180.59,14.88000,      -1.11260
181.107,14.93167,      -1.11543
181.622,14.98333,      -1.11835
182.138,15.03500,      -1.12128
182.654,15.08667,      -1.12441
183.17,15.13833,      -1.12794
183.687,15.19000,      -1.13138
184.203,15.24167,      -1.13500
184.719,15.29333,      -1.13844
185.237,15.34500,      -1.14237
185.753,15.39667,      -1.14630
186.271,15.44833,      -1.15023
186.783,15.50000,      -1.15436
187.302,15.55167,      -1.15810
187.822,15.60333,      -1.16234
188.338,15.65500,      -1.16657
188.853,15.70667,      -1.17100
189.372,15.75833,      -1.17514
189.889,15.81000,      -1.17937
190.405,15.86167,      -1.18351
190.923,15.91333,      -1.18844
191.438,15.96500,      -1.19328
191.955,16.01667,      -1.19802
192.474,16.06833,      -1.20305
192.993,16.12000,      -1.20789
193.509,16.17167,      -1.21313
194.025,16.22333,      -1.21797
194.544,16.27500,      -1.22341
195.056,16.32667,      -1.22844
195.573,16.37833,      -1.23378
196.088,16.43000,      -1.23952
196.605,16.48167,      -1.24497
197.125,16.53333,      -1.25071
197.642,16.58500,      -1.25645
198.157,16.63667,      -1.26249
198.675,16.68833,      -1.26804
199.192,16.74000,      -1.27428
199.71,16.79167,      -1.28033
200.225,16.84333,      -1.28678
200.743,16.89500,      -1.29332
201.263,16.94667,      -1.29967
201.779,16.99833,      -1.30641
202.296,17.05000,      -1.31256
202.814,17.10167,      -1.31931
203.331,17.15333,      -1.32575
203.844,17.20500,      -1.33290
204.364,17.25667,      -1.33964
204.88,17.30833,      -1.34639
205.393,17.36000,      -1.35354
205.911,17.41167,      -1.36048
206.427,17.46333,      -1.36753
206.943,17.51500,      -1.37438
207.461,17.56667,      -1.38143
207.978,17.61833,      -1.38838
208.495,17.67000,      -1.39593
209.009,17.72167,      -1.40287
209.527,17.77333,      -1.41082
210.044,17.82500,      -1.41857
210.562,17.87667,      -1.42552
211.079,17.92833,      -1.43327
211.592,17.98000,      -1.44021
212.109,18.03167,      -1.44786
212.625,18.08333,      -1.45541
213.144,18.13500,      -1.46346
213.66,18.18667,      -1.47081
214.175,18.23833,      -1.47846
214.688,18.29000,      -1.48681
215.209,18.34167,      -1.49436
215.725,18.39333,      -1.50251
216.242,18.44500,      -1.51006
216.757,18.49667,      -1.51811
217.275,18.54833,      -1.52606
217.793,18.60000,      -1.53441
218.31,18.65167,      -1.54246
218.827,18.70333,      -1.55131
219.341,18.75500,      -1.55976
219.858,18.80667,      -1.56791
220.375,18.85833,      -1.57676
220.893,18.91000,      -1.58521
221.411,18.96167,      -1.59406
221.928,19.01333,      -1.60251
222.446,19.06500,      -1.61206
222.962,19.11667,      -1.62151
223.479,19.16833,      -1.63036
223.997,19.22000,      -1.64001
224.513,19.27167,      -1.64916
225.026,19.32333,      -1.65911
225.543,19.37500,      -1.66826
226.059,19.42667,      -1.67862
226.575,19.47833,      -1.68857
227.093,19.53000,      -1.69952
227.606,19.58167,      -1.71057
228.126,19.63333,      -1.72102
228.645,19.68500,      -1.73248
229.158,19.73667,      -1.74342
229.675,19.78833,      -1.75538
230.194,19.84000,      -1.76683
230.707,19.89167,      -1.77928
231.224,19.94333,      -1.79203
231.741,19.99500,      -1.80558
232.257,20.04667,      -1.81813
232.775,20.09833,      -1.84699
233.292,20.15000,      -1.85614
233.811,20.20167,      -1.86659
234.327,20.25333,      -1.87934
234.845,20.30500,      -1.90290
235.359,20.35667,      -1.91465
235.877,20.40833,      -1.93840
236.394,20.46000,      -1.95225
236.912,20.51167,      -1.97460
237.427,20.56333,      -1.99255
237.94,20.61500,      -2.01221
238.461,20.66667,      -2.03056
238.973,20.71833,      -2.05011
239.494,20.77000,      -2.06906
240.01,20.82167,      -2.09052
240.526,20.87333,      -2.11117
241.04,20.92500,      -2.13362
241.556,20.97667,      -2.15567
242.078,21.02833,      -2.18013
242.595,21.08000,      -2.20478
243.114,21.13167,      -2.22963
243.63,21.18333,      -2.25648
244.142,21.23500,      -2.28243
244.66,21.28667,      -2.31088
245.177,21.33833,      -2.33754
245.688,21.39000,      -2.36719
246.208,21.44167,      -2.39534
246.723,21.49333,      -2.42639
247.237,21.54500,      -2.45855
247.754,21.59667,      -2.48960
248.273,21.64833,      -2.52245
248.79,21.70000,      -2.55470
249.308,21.75167,      -2.59006
249.825,21.80333,      -2.62391
250.341,21.85500,      -2.66126
250.861,21.90667,      -2.69851
251.377,21.95833,      -2.73466
251.894,22.01000,      -2.77412
252.41,22.06167,      -2.81127
252.931,22.11333,      -2.85222
253.447,22.16500,      -2.89097
253.965,22.21667,      -2.93342
254.482,22.26833,      -2.97347
254.994,22.32000,      -3.01662
255.51,22.37167,      -3.06138
256.028,22.42333,      -3.10373
256.542,22.47500,      -3.14938
257.06,22.52667,      -3.19263
257.579,22.57833,      -3.23878
258.096,22.63000,      -3.28313
258.613,22.68167,      -3.33119
259.129,22.73333,      -3.37574
259.65,22.78500,      -3.42389
260.164,22.83667,      -3.47264
260.681,22.88833,      -3.51859
261.192,22.94000,      -3.56804
261.711,22.99167,      -3.61479
262.226,23.04333,      -3.66424
262.74,23.09500,      -3.71109
263.256,23.14667,      -3.76154
263.772,23.19833,      -3.80899
264.288,23.25000,      -3.85924
264.801,23.30167,      -3.90960
265.323,23.35333,      -3.95655
265.837,23.40500,      -4.00680
266.354,23.45667,      -4.05355
266.869,23.50833,      -4.10350
267.384,23.56000,      -4.15025
267.901,23.61167,      -4.20010
268.417,23.66333,      -4.24655
268.93,23.71500,      -4.29630
269.449,23.76667,      -4.34565
269.964,23.81833,      -4.39200
270.478,23.87000,      -4.44015
270.997,23.92167,      -4.48540
271.51,23.97333,      -4.53374
272.024,24.02500,      -4.57819
272.538,24.07667,      -4.62584
273.055,24.12833,      -4.67029
273.569,24.18000,      -4.71754
274.084,24.23167,      -4.76379
274.601,24.28333,      -4.80664
275.115,24.33500,      -4.85249
275.635,24.38667,      -4.89544
276.149,24.43833,      -4.93988
276.668,24.49000,      -4.98183
277.188,24.54167,      -5.02598
277.704,24.59333,      -5.06693
278.219,24.64500,      -5.11027
278.737,24.69667,      -5.15302
279.253,24.74833,      -5.19297
279.771,24.80000,      -5.23502
280.284,24.85167,      -5.27386
280.802,24.90333,      -5.31491
281.317,24.95500,      -5.35286
281.833,25.00667,      -5.39300
282.349,25.05833,      -5.43125
282.864,25.11000,      -5.47110
283.379,25.16167,      -5.51054
283.899,25.21333,      -5.54699
284.414,25.26500,      -5.58604
284.938,25.31667,      -5.62218
285.457,25.36833,      -5.66013
285.97,25.42000,      -5.69527
286.488,25.47167,      -5.73222
287.021,25.52333,      -5.76666
287.536,25.57500,      -5.80330
288.05,25.62667,      -5.84015
288.561,25.67833,      -5.87399
289.071,25.73000,      -5.90974
289.586,25.78167,      -5.94308
290.103,25.83333,      -5.97833
290.616,25.88500,      -6.01047
291.132,25.93667,      -6.04552
291.647,25.98833,      -6.07846
292.164,26.04000,      -6.11240
292.677,26.09167,      -6.14735
293.193,26.14333,      -6.17859
293.708,26.19500,      -6.21273
294.228,26.24667,      -6.24457
294.747,26.29833,      -6.27792
295.263,26.35000,      -6.30926
295.782,26.40167,      -6.34330
296.298,26.45333,      -6.37484
296.815,26.50500,      -6.40788
297.332,26.55667,      -6.44132
297.848,26.60833,      -6.47296
298.365,26.66000,      -6.50600
298.883,26.71167,      -6.53665
299.396,26.76333,      -6.57029
299.911,26.81500,      -6.60143
300.432,26.86667,      -6.63517
300.948,26.91833,      -6.66671
301.467,26.97000,      -6.70125
301.983,27.02167,      -6.73549
302.5,27.07333,      -6.76753
303.019,27.12500,      -6.80267
303.53,27.17667,      -6.83541
304.049,27.22833,      -6.87085
304.568,27.28000,      -6.90439
305.082,27.33167,      -6.94033
305.599,27.38333,      -6.97377
306.115,27.43500,      -7.00951
306.631,27.48667,      -7.04675
307.148,27.53833,      -7.08009
307.661,27.59000,      -7.11963
308.177,27.64167,      -7.15527
308.696,27.69333,      -7.19421
309.212,27.74500,      -7.23045
309.729,27.79667,      -7.27019
310.245,27.84833,      -7.30813
310.761,27.90000,      -7.34947
311.28,27.95167,      -7.39111
311.794,28.00333,      -7.43095
312.31,28.05500,      -7.47449
312.827,28.10667,      -7.51503
313.343,28.15833,      -7.55947
313.86,28.21000,      -7.60241
314.374,28.26167,      -7.64875
314.893,28.31333,      -7.69299
315.41,28.36500,      -7.74073
315.926,28.41667,      -7.78907
316.447,28.46833,      -7.83611
316.967,28.52000,      -7.88705
317.487,28.57167,      -7.93599
318.002,28.62333,      -7.98913
318.518,28.67500,      -8.03987
319.032,28.72667,      -8.09521
319.546,28.77833,      -8.14805
320.06,28.83000,      -8.20569
320.574,28.88167,      -8.26343
321.099,28.93333,      -8.31957
321.62,28.98500,      -8.38021
322.136,29.03667,      -8.43795
322.651,29.08833,      -8.50119
323.165,29.14000,      -8.56103
323.678,29.19167,      -8.62657
324.195,29.24333,      -8.68821
324.714,29.29500,      -8.75505
325.231,29.34667,      -8.82249
325.748,29.39833,      -8.88702
326.266,29.45000,      -8.95616
326.78,29.50167,      -9.02261
327.296,29.55333,      -9.09274
327.812,29.60500,      -9.15858
328.332,29.65667,      -9.23012
328.846,29.70833,      -9.29736
329.365,29.76000,      -9.36910
329.879,29.81167,      -9.44134
330.397,29.86333,      -9.50788
330.914,29.91500,      -9.57982
331.429,29.96667,      -9.64576
331.948,30.01833,      -9.71630
332.464,30.07000,      -9.78174
332.977,30.12167,      -9.85158
333.496,30.17333,      -9.92051
334.017,30.22500,      -9.98305
334.531,30.27667,     -10.04939
335.049,30.32833,     -10.10993
335.565,30.38000,     -10.17357
336.08,30.43167,     -10.23131
336.601,30.48333,     -10.29204
337.12,30.53500,     -10.34748
337.636,30.58667,     -10.40532
338.15,30.63833,     -10.46186
338.663,30.69000,     -10.51230
339.178,30.74167,     -10.56544
339.692,30.79333,     -10.61358
340.207,30.84500,     -10.66152
340.721,30.89667,     -10.70765
341.235,30.94833,     -10.75359
341.752,31.00000,     -10.79513
342.269,31.05167,     -10.83807
342.782,31.10333,     -10.87980
343.298,31.15500,     -10.91764
343.815,31.20667,     -10.95618
344.33,31.25833,     -10.99072
344.848,31.31000,     -11.02625
345.367,31.36167,     -11.05919
345.883,31.41333,     -11.09333
346.395,31.46500,     -11.12347
346.911,31.51667,     -11.15430
347.428,31.56833,     -11.18414
347.944,31.62000,     -11.21108
348.458,31.67167,     -11.23911
348.975,31.72333,     -11.26455
349.49,31.77500,     -11.29138
350.007,31.82667,     -11.31502
350.524,31.87833,     -11.33896
351.042,31.93000,     -11.36129
351.559,31.98167,     -11.38393
352.076,32.03333,     -11.40616
352.59,32.08500,     -11.42570
353.11,32.13667,     -11.44644
353.624,32.18833,     -11.46497
354.141,32.24000,     -11.48431
354.659,32.29167,     -11.50204
355.171,32.34333,     -11.52068
355.69,32.39500,     -11.53741
356.205,32.44667,     -11.55435
356.723,32.49833,     -11.56518
357.237,32.55000,     -11.58412
357.756,32.60167,     -11.59935
358.273,32.65333,     -11.61038
358.79,32.70500,     -11.62252
359.307,32.75667,     -11.64665
359.825,32.80833,     -11.65579
360.34,32.86000,     -11.66672
360.857,32.91167,     -11.67876
361.375,32.96333,     -11.69749
361.891,33.01500,     -11.71202
362.407,33.06667,     -11.72226
362.924,33.11833,     -11.73269
363.441,33.17000,     -11.74382
363.956,33.22167,     -11.75566
364.473,33.27333,     -11.76819
364.99,33.32500,     -11.77972
365.506,33.37667,     -11.79196
366.021,33.42833,     -11.80359
366.537,33.48000,     -11.81502
367.054,33.53167,     -11.82665
367.572,33.58333,     -11.83759
368.088,33.63500,     -11.84912
368.601,33.68667,     -11.85945
369.118,33.73833,     -11.86968
369.637,33.79000,     -11.87951
370.15,33.84167,     -11.89175
370.667,33.89333,     -11.90368
371.184,33.94500,     -11.91321
371.697,33.99667,     -11.92354
372.219,34.04833,     -11.93257
372.731,34.10000,     -11.94310
373.249,34.15167,     -11.95263
373.767,34.20333,     -11.96226
374.28,34.25500,     -11.97149
374.797,34.30667,     -11.98162
375.315,34.35833,     -11.99225
375.828,34.41000,     -12.00208
376.343,34.46167,     -12.01221
376.859,34.51333,     -12.02194
377.373,34.56500,     -12.03157
377.888,34.61667,     -12.04080
378.406,34.66833,     -12.05043
378.925,34.72000,     -12.05915
379.44,34.77167,     -12.06808
379.959,34.82333,     -12.07741
380.477,34.87500,     -12.08654
380.993,34.92667,     -12.09607
381.509,34.97833,     -12.10530
382.023,35.03000,     -12.11483
382.541,35.08167,     -12.12315
383.058,35.13333,     -12.13228
383.572,35.18500,     -12.14101
384.09,35.23667,     -12.15063
384.607,35.28833,     -12.15996
385.124,35.34000,     -12.16899
385.64,35.39167,     -12.17881
386.153,35.44333,     -12.18764
386.669,35.49500,     -12.19717
387.187,35.54667,     -12.20589
387.7,35.59833,     -12.21502
388.217,35.65000,     -12.22394
388.731,35.70167,     -12.23317
389.248,35.75333,     -12.24209
389.765,35.80500,     -12.25012
390.284,35.85667,     -12.25874
390.801,35.90833,     -12.26736
391.316,35.96000,     -12.27609
391.833,36.01167,     -12.28471
392.348,36.06333,     -12.29344
392.864,36.11500,     -12.30226
393.378,36.16667,     -12.31109
393.896,36.21833,     -12.31951
394.411,36.27000,     -12.32763
394.931,36.32167,     -12.33605
395.447,36.37333,     -12.34397
395.964,36.42500,     -12.35280
396.484,36.47667,     -12.36082
397.001,36.52833,     -12.36974
397.517,36.58000,     -12.37786
398.031,36.63167,     -12.38679
398.546,36.68333,     -12.39571
399.059,36.73500,     -12.40373
399.572,36.78667,     -12.41235
400.092,36.83833,     -12.42027
400.605,36.89000,     -12.42939
401.12,36.94167,     -12.43711
401.638,36.99333,     -12.44553
402.153,37.04500,     -12.45375
402.672,37.09667,     -12.46157
403.188,37.14833,     -12.47029
403.706,37.20000,     -12.47801
404.224,37.25167,     -12.48613
404.743,37.30333,     -12.49374
405.259,37.35500,     -12.50166
405.777,37.40667,     -12.50968
406.293,37.45833,     -12.51830
406.81,37.51000,     -12.52602
407.328,37.56167,     -12.53434
407.84,37.61333,     -12.54196
408.361,37.66500,     -12.54948
408.875,37.71667,     -12.55730
409.39,37.76833,     -12.56522
409.907,37.82000,     -12.57343
410.42,37.87167,     -12.58065
410.937,37.92333,     -12.58857
411.449,37.97500,     -12.59629
411.968,38.02667,     -12.60441
412.485,38.07833,     -12.61213
412.997,38.13000,     -12.61924
413.514,38.18167,     -12.62756
414.033,38.23333,     -12.63457
414.55,38.28500,     -12.64179
415.069,38.33667,     -12.64881
415.585,38.38833,     -12.65622
416.103,38.44000,     -12.66364
416.619,38.49167,     -12.67116
417.134,38.54333,     -12.67878
417.65,38.59500,     -12.68589
418.166,38.64667,     -12.69341
418.685,38.69833,     -12.70102
419.201,38.75000,     -12.70864
419.718,38.80167,     -12.71615
420.23,38.85333,     -12.72377
420.746,38.90500,     -12.73079
421.263,38.95667,     -12.73780
421.779,39.00833,     -12.74512
422.299,39.06000,     -12.75213
422.816,39.11167,     -12.75894
423.335,39.16333,     -12.76576
423.848,39.21500,     -12.77288
424.366,39.26667,     -12.77939
424.879,39.31833,     -12.78651
425.394,39.37000,     -12.79302
425.908,39.42167,     -12.80014
426.426,39.47333,     -12.80735
426.942,39.52500,     -12.81416
427.456,39.57667,     -12.82178
427.972,39.62833,     -12.82859
428.487,39.68000,     -12.83521
429.004,39.73167,     -12.84142
429.519,39.78333,     -12.84793
430.034,39.83500,     -12.85435
430.552,39.88667,     -12.86036
431.068,39.93833,     -12.86667
431.587,39.99000,     -12.87248
432.103,40.04167,     -12.87840
432.621,40.09333,     -12.88451
433.137,40.14500,     -12.89092
433.65,40.19667,     -12.89804
434.169,40.24833,     -12.90425
434.683,40.30000,     -12.91046
435.202,40.35167,     -12.91687
435.718,40.40333,     -12.92328
436.235,40.45500,     -12.92959
436.751,40.50667,     -12.93620
437.269,40.55833,     -12.94242
437.786,40.61000,     -12.94893
438.298,40.66167,     -12.95454
438.814,40.71333,     -12.96085
439.331,40.76500,     -12.96706
439.844,40.81667,     -12.97298
440.36,40.86833,     -12.97939
440.878,40.92000,     -12.98540
441.394,40.97167,     -12.99171
441.914,41.02333,     -12.99721
442.431,41.07500,     -13.00312
442.95,41.12667,     -13.00853
443.464,41.17833,     -13.01434
443.981,41.23000,     -13.02046
444.497,41.28167,     -13.02567
445.011,41.33333,     -13.03108
445.528,41.38500,     -13.03619
446.041,41.43667,     -13.04170
446.555,41.48833,     -13.04691
447.071,41.54000,     -13.05252
447.585,41.59167,     -13.05843
448.103,41.64333,     -13.06384
448.622,41.69500,     -13.06954
449.138,41.74667,     -13.07505
449.656,41.79833,     -13.08046
450.174,41.85000,     -13.08567
450.687,41.90167,     -13.09108
451.205,41.95333,     -13.09618
451.721,42.00500,     -13.10149
452.235,42.05667,     -13.10640
452.752,42.10833,     -13.11141
453.269,42.16000,     -13.11632
453.787,42.21167,     -13.12112
454.301,42.26333,     -13.12613
454.821,42.31500,     -13.13084
455.336,42.36667,     -13.13554
455.855,42.41833,     -13.14025
456.371,42.47000,     -13.14566
456.885,42.52167,     -13.15017
457.402,42.57333,     -13.15538
457.915,42.62500,     -13.15999
458.429,42.67667,     -13.16479
458.945,42.72833,     -13.16990
459.461,42.78000,     -13.17460
459.976,42.83167,     -13.17991
460.491,42.88333,     -13.18462
461.011,42.93500,     -13.18852
461.526,42.98667,     -13.19282
462.046,43.03833,     -13.19713
462.564,43.09000,     -13.20163
463.081,43.14167,     -13.20564
463.598,43.19333,     -13.21034
464.113,43.24500,     -13.21445
464.627,43.29667,     -13.21876
465.144,43.34833,     -13.22316
465.657,43.40000,     -13.22767
466.172,43.45167,     -13.23208
466.69,43.50333,     -13.23628
467.207,43.55500,     -13.24038
467.724,43.60667,     -13.24469
468.24,43.65833,     -13.24919
468.758,43.71000,     -13.25329
469.276,43.76167,     -13.25740
469.792,43.81333,     -13.26140
470.309,43.86500,     -13.26610
470.823,43.91667,     -13.27041
471.34,43.96833,     -13.27461
471.858,44.02000,     -13.27902
472.374,44.07167,     -13.28292
472.889,44.12333,     -13.28682
473.405,44.17500,     -13.29053
473.921,44.22667,     -13.29443
474.44,44.27833,     -13.29833
474.953,44.33000,     -13.30264
475.472,44.38167,     -13.30663
475.987,44.43333,     -13.31024
476.504,44.48500,     -13.31384
477.021,44.53667,     -13.31734
477.536,44.58833,     -13.32114
478.058,44.64000,     -13.32484
478.573,44.69167,     -13.32845
479.09,44.74333,     -13.33185
479.605,44.79500,     -13.33495
480.119,44.84667,     -13.33895
480.632,44.89833,     -13.34276
481.149,44.95000,     -13.34606
481.664,45.00167,     -13.34946
482.182,45.05333,     -13.35376
482.697,45.10500,     -13.35726
483.212,45.15667,     -13.36126
483.733,45.20833,     -13.36466
484.249,45.26000,     -13.36846
484.768,45.31167,     -13.37136
485.284,45.36333,     -13.37516
485.802,45.41500,     -13.37866
486.318,45.46667,     -13.38206
486.832,45.51833,     -13.38606
487.348,45.57000,     -13.38926
487.861,45.62167,     -13.39237
488.378,45.67333,     -13.39536
488.892,45.72500,     -13.39846
489.41,45.77667,     -13.40146
489.925,45.82833,     -13.40486
490.439,45.88000,     -13.40836
490.957,45.93167,     -13.41116
491.475,45.98333,     -13.41365
491.991,46.03500,     -13.41685
492.51,46.08667,     -13.42125
493.027,46.13833,     -13.42465
493.543,46.19000,     -13.42855
494.058,46.24167,     -13.43155
494.573,46.29333,     -13.43464
495.089,46.34500,     -13.43774
495.604,46.39667,     -13.44034
496.123,46.44833,     -13.44354
496.636,46.50000,     -13.44664
497.152,46.55167,     -13.44994
497.669,46.60333,     -13.45283
498.184,46.65500,     -13.45623
498.701,46.70667,     -13.45922
499.216,46.75833,     -13.46212
499.734,46.81000,     -13.46502
500.248,46.86167,     -13.46772
500.765,46.91333,     -13.47091
501.283,46.96500,     -13.47381
501.796,47.01667,     -13.47711
502.314,47.06833,     -13.48030
502.83,47.12000,     -13.48300
503.345,47.17167,     -13.48590
503.862,47.22333,     -13.48869
504.376,47.27500,     -13.49149
504.896,47.32667,     -13.49438
505.41,47.37833,     -13.49738
505.928,47.43000,     -13.50037
506.442,47.48167,     -13.50347
506.96,47.53333,     -13.50647
507.477,47.58500,     -13.50936
507.996,47.63667,     -13.51186
508.511,47.68833,     -13.51505
509.03,47.74000,     -13.51815
509.543,47.79167,     -13.52104
510.057,47.84333,     -13.52384
510.573,47.89500,     -13.52664
511.088,47.94667,     -13.52923
511.603,47.99833,     -13.53173
512.122,48.05000,     -13.53482
512.638,48.10167,     -13.53751
513.155,48.15333,     -13.54011
513.667,48.20500,     -13.54281
514.186,48.25667,     -13.54540
514.701,48.30833,     -13.54809
515.216,48.36000,     -13.54999
515.734,48.41167,     -13.55218
516.25,48.46333,     -13.55498
516.766,48.51500,     -13.55857
517.282,48.56667,     -13.56147
517.795,48.61833,     -13.56376
518.313,48.67000,     -13.56675
518.829,48.72167,     -13.56975
519.343,48.77333,     -13.57234
519.86,48.82500,     -13.57453
520.376,48.87667,     -13.57723
520.894,48.92833,     -13.58012
521.409,48.98000,     -13.58241
521.925,49.03167,     -13.58481
522.445,49.08333,     -13.58700
522.96,49.13500,     -13.58939
523.476,49.18667,     -13.59199
523.992,49.23833,     -13.59458
524.507,49.29000,     -13.59727
525.024,49.34167,     -13.60037
525.537,49.39333,     -13.60276
526.052,49.44500,     -13.60475
526.569,49.49667,     -13.60684
527.088,49.54833,     -13.60933
527.603,49.60000,     -13.61223
528.119,49.65167,     -13.61462
528.636,49.70333,     -13.61711
529.151,49.75500,     -13.61931
529.666,49.80667,     -13.62170
530.182,49.85833,     -13.62379
530.696,49.91000,     -13.62628
531.213,49.96167,     -13.62857
531.729,50.01333,     -13.63006
532.246,50.06500,     -13.63235
532.764,50.11667,     -13.63484
533.28,50.16833,     -13.63773
533.802,50.22000,     -13.64012
534.318,50.27167,     -13.64141
534.833,50.32333,     -13.64361
535.348,50.37500,     -13.64610
535.864,50.42667,     -13.64849
536.38,50.47833,     -13.65038
536.892,50.53000,     -13.65337
537.408,50.58167,     -13.65586
537.924,50.63333,     -13.65815
538.442,50.68500,     -13.66034
538.96,50.73667,     -13.66292
539.476,50.78833,     -13.66542
539.996,50.84000,     -13.66850
540.512,50.89167,     -13.67059
541.03,50.94333,     -13.67258
541.548,50.99500,     -13.67497
542.061,51.04667,     -13.67716
542.575,51.09833,     -13.67925
543.092,51.15000,     -13.68084
543.609,51.20167,     -13.68283
544.125,51.25333,     -13.68522
544.643,51.30500,     -13.68730
545.16,51.35667,     -13.68989
545.676,51.40833,     -13.69228
546.198,51.46000,     -13.69396
546.713,51.51167,     -13.69515
547.231,51.56333,     -13.69704
547.743,51.61500,     -13.69943
548.257,51.66667,     -13.70202
548.769,51.71833,     -13.70471
549.287,51.77000,     -13.70700
549.805,51.82167,     -13.70868
550.32,51.87333,     -13.71007
550.837,51.92500,     -13.71226
551.355,51.97667,     -13.71414
551.873,52.02833,     -13.71563
552.392,52.08000,     -13.71781
552.908,52.13167,     -13.72030
553.421,52.18333,     -13.72179
553.938,52.23500,     -13.72297
554.455,52.28667,     -13.72406
554.97,52.33833,     -13.72575
555.484,52.39000,     -13.72724
556,52.44167,     -13.72952
556.516,52.49333,     -13.73161
557.031,52.54500,     -13.73379
557.551,52.59667,     -13.73627
558.066,52.64833,     -13.73816
558.582,52.70000,     -13.73974
559.1,52.75167,     -13.74133
559.618,52.80333,     -13.74331
560.138,52.85500,     -13.74509
560.655,52.90667,     -13.74658
561.174,52.95833,     -13.74836
561.691,53.01000,     -13.75045
562.203,53.06167,     -13.75283
562.717,53.11333,     -13.75512
563.23,53.16500,     -13.75761
563.746,53.21667,     -13.75989
564.26,53.26833,     -13.76167
564.778,53.32000,     -13.76325
565.295,53.37167,     -13.76443
565.81,53.42333,     -13.76542
566.329,53.47500,     -13.76740
566.847,53.52667,     -13.77008
567.365,53.57833,     -13.77226
567.882,53.63000,     -13.77394
568.399,53.68167,     -13.77602
568.916,53.73333,     -13.77811
569.434,53.78500,     -13.77929
569.948,53.83667,     -13.78057
570.462,53.88833,     -13.78196
570.979,53.94000,     -13.78324
571.492,53.99167,     -13.78572
572.011,54.04333,     -13.78840
572.528,54.09500,     -13.79058
573.047,54.14667,     -13.79196
573.563,54.19833,     -13.79384
574.083,54.25000,     -13.79592
574.599,54.30167,     -13.79750
575.118,54.35333,     -13.79918
575.633,54.40500,     -13.80056
576.146,54.45667,     -13.80164
576.661,54.50833,     -13.80292
577.174,54.56000,     -13.80490
577.687,54.61167,     -13.80738
578.203,54.66333,     -13.80926
578.72,54.71500,     -13.81094
579.237,54.76667,     -13.81292
579.755,54.81833,     -13.81529
580.269,54.87000,     -13.81757
580.791,54.92167,     -13.81915
581.308,54.97333,     -13.82002
581.825,55.02500,     -13.82060
582.343,55.07667,     -13.82118
582.862,55.12833,     -13.82236
583.376,55.18000,     -13.82354
583.892,55.23167,     -13.82482
584.405,55.28333,     -13.82650
584.921,55.33500,     -13.82887
585.435,55.38667,     -13.83205
585.953,55.43833,     -13.83472
586.469,55.49000,     -13.83670
586.988,55.54167,     -13.83787
587.505,55.59333,     -13.83855
588.023,55.64500,     -13.83963
588.541,55.69667,     -13.84080
589.059,55.74833,     -13.84217
589.577,55.80000,     -13.84385
590.095,55.85167,     -13.84592
590.609,55.90333,     -13.84830
591.123,55.95500,     -13.85048
591.64,56.00667,     -13.85205
592.153,56.05833,     -13.85383
592.67,56.11000,     -13.85550
593.182,56.16167,     -13.85698
593.7,56.21333,     -13.85835
594.217,56.26500,     -13.85962
594.734,56.31667,     -13.86079
595.254,56.36833,     -13.86156
595.77,56.42000,     -13.86274
596.287,56.47167,     -13.86471
596.803,56.52333,     -13.86669
597.321,56.57500,     -13.86856
597.836,56.62667,     -13.87023
598.352,56.67833,     -13.87210
598.868,56.73000,     -13.87358
599.383,56.78167,     -13.87535
599.903,56.83333,     -13.87722
600.42,56.88500,     -13.87859
600.94,56.93667,     -13.87946
601.454,56.98833,     -13.88113
601.968,57.04000,     -13.88241
602.483,57.09167,     -13.88378
603,57.14333,     -13.88505
603.516,57.19500,     -13.88612
604.034,57.24667,     -13.88719
604.55,57.29833,     -13.88816
605.067,57.35000,     -13.88973
605.585,57.40167,     -13.89160
606.099,57.45333,     -13.89317
606.616,57.50500,     -13.89463
607.135,57.55667,     -13.89590
607.651,57.60833,     -13.89727
608.17,57.66000,     -13.89844
608.686,57.71167,     -13.89971
609.205,57.76333,     -13.90087
609.72,57.81500,     -13.90194
610.237,57.86667,     -13.90331
610.751,57.91833,     -13.90479
611.263,57.97000,     -13.90645
611.78,58.02167,     -13.90832
612.296,58.07333,     -13.91059
612.815,58.12500,     -13.91225
613.33,58.17667,     -13.91342
613.847,58.22833,     -13.91439
614.363,58.28000,     -13.91555
614.877,58.33167,     -13.91672
615.393,58.38333,     -13.91799
615.914,58.43500,     -13.91925
616.432,58.48667,     -13.92052
616.949,58.53833,     -13.92238
617.466,58.59000,     -13.92425
617.981,58.64167,     -13.92631
618.498,58.69333,     -13.92798
619.015,58.74500,     -13.92905
619.529,58.79667,     -13.92971
620.042,58.84833,     -13.93038
620.561,58.90000,     -13.93154
621.076,58.95167,     -13.93251
621.594,59.00333,     -13.93417
622.113,59.05500,     -13.93563
622.627,59.10667,     -13.93740
623.144,59.15833,     -13.93886
623.659,59.21000,     -13.94013
624.174,59.26167,     -13.94149
624.689,59.31333,     -13.94266
625.208,59.36500,     -13.94402
625.72,59.41667,     -13.94528
626.238,59.46833,     -13.94654
626.756,59.52000,     -13.94761
627.272,59.57167,     -13.94887
627.788,59.62333,     -13.95003
628.31,59.67500,     -13.95069
628.825,59.72667,     -13.95155
629.345,59.77833,     -13.95231
629.859,59.83000,     -13.95358
630.377,59.88167,     -13.95494
630.89,59.93333,     -13.95641
631.402,59.98500,     -13.95867
631.918,60.03667,     -13.96073
632.435,60.08833,     -13.96239
632.949,60.14000,     -13.96375
633.47,60.19167,     -13.96461
633.986,60.24333,     -13.96517
634.502,60.29500,     -13.96603
635.021,60.34667,     -13.96659
635.538,60.39833,     -13.96715
636.056,60.45000,     -13.96811
636.572,60.50167,     -13.96927
637.089,60.55333,     -13.97063
637.606,60.60500,     -13.97189
638.122,60.65667,     -13.97375
638.636,60.70833,     -13.97572
639.151,60.76000,     -13.97818
639.669,60.81167,     -13.98043
640.185,60.86333,     -13.98199
640.7,60.91500,     -13.98325
641.217,60.96667,     -13.98441
641.732,61.01833,     -13.98557
642.249,61.07000,     -13.98663
642.771,61.12167,     -13.98728
643.289,61.17333,     -13.98744
643.808,61.22500,     -13.98780
644.322,61.27667,     -13.98866
644.839,61.32833,     -13.98962
645.352,61.38000,     -13.99078
645.865,61.43167,     -13.99144
646.383,61.48333,     -13.99260
646.897,61.53500,     -13.99306
647.414,61.58667,     -13.99371
647.93,61.63833,     -13.99467
648.446,61.69000,     -13.99573
648.966,61.74167,     -13.99658
649.482,61.79333,     -13.99764
650.001,61.84500,     -13.99829
650.514,61.89667,     -13.99935
651.026,61.94833,     -14.00071
651.545,62.00000,     -14.00267
652.06,62.05167,     -14.00502
652.577,62.10333,     -14.00638
653.096,62.15500,     -14.00743
653.609,62.20667,     -14.00929
654.123,62.25833,     -14.01165
654.642,62.31000,     -14.01290
655.161,62.36167,     -14.01426
655.673,62.41333,     -14.01542
656.189,62.46500,     -14.01597
656.704,62.51667,     -14.01643
657.22,62.56833,     -14.01678
657.74,62.62000,     -14.01743
658.258,62.67167,     -14.01799
658.773,62.72333,     -14.01874
659.294,62.77500,     -14.01970
659.811,62.82667,     -14.02075
660.326,62.87833,     -14.02141
660.844,62.93000,     -14.02216
661.36,62.98167,     -14.02311
661.879,63.03333,     -14.02427
662.395,63.08500,     -14.02532
662.909,63.13667,     -14.02648
663.425,63.18833,     -14.02783
663.941,63.24000,     -14.02889
664.455,63.29167,     -14.02964
664.975,63.34333,     -14.03059
665.489,63.39500,     -14.03145
666.007,63.44667,     -14.03260
666.524,63.49833,     -14.03385
667.04,63.55000,     -14.03521
667.555,63.60167,     -14.03616
668.072,63.65333,     -14.03721
668.589,63.70500,     -14.03846
669.109,63.75667,     -14.03981
669.625,63.80833,     -14.04117
670.14,63.86000,     -14.04252
670.659,63.91167,     -14.04367
671.179,63.96333,     -14.04432
671.696,64.01500,     -14.04498
672.213,64.06667,     -14.04553
672.729,64.11833,     -14.04628
673.245,64.17000,     -14.04703
673.759,64.22167,     -14.04799
674.275,64.27333,     -14.04874
674.791,64.32500,     -14.04949
675.304,64.37667,     -14.05065
675.824,64.42833,     -14.05199
676.336,64.48000,     -14.05355
676.853,64.53167,     -14.05490
677.371,64.58333,     -14.05605
677.885,64.63500,     -14.05710
678.401,64.68667,     -14.05815
678.919,64.73833,     -14.05900
679.436,64.79000,     -14.05965
679.952,64.84167,     -14.06030
680.467,64.89333,     -14.06115
680.985,64.94500,     -14.06180
681.501,64.99667,     -14.06285
682.016,65.04833,     -14.06401
682.535,65.10000,     -14.06495
683.045,65.15167,     -14.06591
683.561,65.20333,     -14.06706
684.076,65.25500,     -14.06801
684.59,65.30667,     -14.06926
685.107,65.35833,     -14.07021
685.622,65.41000,     -14.07116
686.142,65.46167,     -14.07231
686.658,65.51333,     -14.07336
687.178,65.56500,     -14.07420
687.699,65.61667,     -14.07535
688.218,65.66833,     -14.07640
688.734,65.72000,     -14.07775
689.25,65.77167,     -14.07900
689.767,65.82333,     -14.07995
690.282,65.87500,     -14.08130
690.796,65.92667,     -14.08255
691.312,65.97833,     -14.08350
691.831,66.03000,     -14.08424
692.35,66.08167,     -14.08519
692.866,66.13333,     -14.08624
693.385,66.18500,     -14.08669
693.907,66.23667,     -14.08713
694.422,66.28833,     -14.08758
694.937,66.34000,     -14.08873
695.451,66.39167,     -14.08999
695.967,66.44333,     -14.09213
696.484,66.49500,     -14.09428
696.999,66.54667,     -14.09563
697.519,66.59833,     -14.09598
698.036,66.65000,     -14.09582
698.556,66.70167,     -14.09607
699.074,66.75333,     -14.09622
699.591,66.80500,     -14.09777
700.104,66.85667,     -14.10022
700.619,66.90833,     -14.10507
701.131,66.96000,     -14.10742
701.648,67.01167,     -14.10776
702.168,67.06333,     -14.10801
702.688,67.11500,     -14.10765
703.204,67.16667,     -14.10770
703.718,67.21833,     -14.10775
704.232,67.27000,     -14.10800
704.753,67.32167,     -14.10844
705.272,67.37333,     -14.10909
705.788,67.42500,     -14.10954
706.303,67.47667,     -14.11009
706.821,67.52833,     -14.11094
707.338,67.58000,     -14.11178
707.851,67.63167,     -14.11243
708.366,67.68333,     -14.11378
708.884,67.73500,     -14.11463
709.399,67.78667,     -14.11538
709.918,67.83833,     -14.11642
710.435,67.89000,     -14.11707
710.952,67.94167,     -14.11792
711.468,67.99333,     -14.11856
711.982,68.04500,     -14.11961
712.496,68.09667,     -14.12056
713.014,68.14833,     -14.12151
713.53,68.20000,     -14.12276
714.045,68.25167,     -14.12400
714.561,68.30333,     -14.12485
715.08,68.35500,     -14.12580
715.599,68.40667,     -14.12634
716.117,68.45833,     -14.12699
716.632,68.51000,     -14.12754
717.145,68.56167,     -14.12819
717.664,68.61333,     -14.12893
718.182,68.66500,     -14.12958
718.694,68.71667,     -14.13063
719.21,68.76833,     -14.13198
719.724,68.82000,     -14.13342
720.236,68.87167,     -14.13527
720.753,68.92333,     -14.13652
721.27,68.97500,     -14.13716
721.789,69.02667,     -14.13771
722.305,69.07833,     -14.13825
722.821,69.13000,     -14.13870
723.339,69.18167,     -14.13925
723.854,69.23333,     -14.13979
724.372,69.28500,     -14.14064
724.888,69.33667,     -14.14139
725.404,69.38833,     -14.14223
725.918,69.44000,     -14.14328
726.434,69.49167,     -14.14413
726.952,69.54333,     -14.14487
727.466,69.59500,     -14.14572
727.984,69.64667,     -14.14646
728.499,69.69833,     -14.14731
729.02,69.75000,     -14.14805
729.541,69.80167,     -14.14859
730.055,69.85333,     -14.14904
730.576,69.90500,     -14.14958
731.094,69.95667,     -14.15013
731.607,70.00833,     -14.15078
732.125,70.06000,     -14.15172
732.641,70.11167,     -14.15247
733.157,70.16333,     -14.15331
733.675,70.21500,     -14.15426
734.196,70.26667,     -14.15520
734.715,70.31833,     -14.15664
735.231,70.37000,     -14.15779
735.745,70.42167,     -14.15873
736.262,70.47333,     -14.15958
736.778,70.52500,     -14.16032
737.295,70.57667,     -14.16087
737.814,70.62833,     -14.16151
738.329,70.68000,     -14.16175
738.845,70.73167,     -14.16190
739.361,70.78333,     -14.16244
739.877,70.83500,     -14.16309
740.393,70.88667,     -14.16433
740.907,70.93833,     -14.16598
741.419,70.99000,     -14.16832
741.929,71.04167,     -14.16977
742.449,71.09333,     -14.17060
742.964,71.14500,     -14.17165
743.483,71.19667,     -14.17219
744.002,71.24833,     -14.17223
744.517,71.30000,     -14.17187
745.038,71.35167,     -14.17221
745.552,71.40333,     -14.17416
746.068,71.45500,     -14.17610
746.587,71.50667,     -14.17674
747.104,71.55833,     -14.17678
747.626,71.61000,     -14.17622
748.145,71.66167,     -14.17636
748.66,71.71333,     -14.17720
749.175,71.76500,     -14.17765
749.69,71.81667,     -14.17759
750.203,71.86833,     -14.17793
750.72,71.92000,     -14.17867
751.234,71.97167,     -14.17961
751.75,72.02333,     -14.18075
752.264,72.07500,     -14.18129
752.785,72.12667,     -14.18183
753.303,72.17833,     -14.18187
753.823,72.23000,     -14.18231
754.344,72.28167,     -14.18344
754.855,72.33333,     -14.18439
755.369,72.38500,     -14.18563
755.885,72.43667,     -14.18637
756.402,72.48833,     -14.18681
756.917,72.54000,     -14.18735
757.434,72.59167,     -14.18839
757.951,72.64333,     -14.18922
758.466,72.69500,     -14.19006
758.984,72.74667,     -14.19050
759.5,72.79833,     -14.19094
760.016,72.85000,     -14.19138
760.532,72.90167,     -14.19171
761.048,72.95333,     -14.19195
761.562,73.00500,     -14.19229
762.078,73.05667,     -14.19293
762.591,73.10833,     -14.19377
763.106,73.16000,     -14.19460
763.623,73.21167,     -14.19544
764.138,73.26333,     -14.19638
764.654,73.31500,     -14.19761
765.17,73.36667,     -14.19855
765.688,73.41833,     -14.19898
766.2,73.47000,     -14.19942
766.722,73.52167,     -14.19975
767.241,73.57333,     -14.20009
767.758,73.62500,     -14.20032
768.277,73.67667,     -14.20075
768.79,73.72833,     -14.20129
769.309,73.78000,     -14.20192
769.824,73.83167,     -14.20276
770.341,73.88333,     -14.20329
770.856,73.93500,     -14.20393
771.374,73.98667,     -14.20446
771.893,74.03833,     -14.20509
772.408,74.09000,     -14.20573
772.925,74.14167,     -14.20616
773.44,74.19333,     -14.20629
773.956,74.24500,     -14.20673
774.474,74.29667,     -14.20706
774.989,74.34833,     -14.20749
775.508,74.40000,     -14.20782
776.026,74.45167,     -14.20825
776.543,74.50333,     -14.20888
777.058,74.55500,     -14.20981
777.574,74.60667,     -14.21125
778.087,74.65833,     -14.21238
778.603,74.71000,     -14.21331
779.124,74.76167,     -14.21393
779.636,74.81333,     -14.21437
780.154,74.86500,     -14.21470
780.674,74.91667,     -14.21492
781.19,74.96833,     -14.21535
781.709,75.02000,     -14.21578
782.224,75.07167,     -14.21651
782.741,75.12333,     -14.21704
783.258,75.17500,     -14.21767
783.771,75.22667,     -14.21810
784.289,75.27833,     -14.21852
784.808,75.33000,     -14.21885
785.323,75.38167,     -14.21938
785.84,75.43333,     -14.22030
786.357,75.48500,     -14.22103
786.878,75.53667,     -14.22145
787.39,75.58833,     -14.22178
787.905,75.64000,     -14.22271
788.425,75.69167,     -14.22344
788.941,75.74333,     -14.22346
789.457,75.79500,     -14.22379
789.97,75.84667,     -14.22461
790.49,75.89833,     -14.22564
791.006,75.95000,     -14.22626
791.527,76.00167,     -14.22678
792.042,76.05333,     -14.22711
792.558,76.10500,     -14.22723
793.073,76.15667,     -14.22725
793.591,76.20833,     -14.22718
794.107,76.26000,     -14.22750
794.622,76.31167,     -14.22792
795.14,76.36333,     -14.22834
795.657,76.41500,     -14.22886
796.176,76.46667,     -14.22919
796.692,76.51833,     -14.22911
797.215,76.57000,     -14.22912
797.729,76.62167,     -14.22965
798.247,76.67333,     -14.22997
798.764,76.72500,     -14.23039
799.282,76.77667,     -14.23091
799.502,76.79833,     -14.23133