File: data-raw/TGA/M_TGA.csv
#EXPORTTYPE:                 ,DATA SINGLE
#FILE:                       ,M.ngb-st9
#FORMAT:                     ,NETZSCH5
#FTYPE:                      ,ANSI
#IDENTITY:                   ,Saras
#DECIMAL:                    ,POINT
#SEPARATOR:                  ,COMMA
#MTYPE:                      ,TG
#INSTRUMENT:                 ,NETZSCH TG 209F1 Libra
#PROJECT:                    ,IL
#DATE/TIME:                  ,20/03/2017 4:03:47 PM (UTC+11)
#CORR. FILE:                 ,
#TEMPCAL:                    ,TCALZERO.TCX
#LABORATORY:                 ,Capture Lab
#OPERATOR:                   ,NJN
#REMARK:                     ,Training run
#SAMPLE:                     ,M
#SAMPLE MASS /mg:            ,18.9745
#MATERIAL:                   ,zeolite
#TYPE OF CRUCIBLE:           ,Al2O3
#SAMPLE CRUCIBLE MASS /mg:   ,312.0043
#REFERENCE CRUCIBLE MASS /mg:,
#M.RANGE /mg:                ,2000
#CORR. CODE:                 ,090
#RANGE:                      ,32°C/10.0(K/min)/800°C
#SEGMENT:                    ,S1/1
#SEG. 1:                     ,32°C/10.0(K/min)/800°C

##Temp./°C,Time/min,Mass loss/mg
 32.22500, 0.00000,-1.909441e-003
 32.22100, 0.05167,-5.727993e-003
 32.26000, 0.10333,-8.847909e-003
 32.54700, 0.15500,-9.112378e-003
 32.90800, 0.20667,-1.010548e-002
 33.24200, 0.25833,-1.304632e-002
 33.57600, 0.31000,-1.646940e-002
 33.94700, 0.36167,-1.941823e-002
 34.36500, 0.41333,-2.227984e-002
 34.80700, 0.46500,-2.602624e-002
 35.27200, 0.51667,-2.987792e-002
 35.76600, 0.56833,-3.213146e-002
 36.28600, 0.62000,-3.537442e-002
 36.83500, 0.67167,-3.950783e-002
 37.39700, 0.72333,-4.354235e-002
 37.98300, 0.77500,-4.834090e-002
 38.58100, 0.82667,-5.276317e-002
 39.19000, 0.87833,-5.758580e-002
 39.81000, 0.93000,-6.209897e-002
 40.44000, 0.98167,-6.782119e-002
 41.07100, 1.03333,-7.329215e-002
 41.69800, 1.08500,-7.924543e-002
 42.33700, 1.13667,-8.544984e-002
 42.96200, 1.18833,-9.111842e-002
 43.59200, 1.24000,-9.787628e-002
 44.21100, 1.29167,      -0.10418
 44.82500, 1.34333,      -0.11115
 45.42900, 1.39500,      -0.11798
 46.03100, 1.44667,      -0.12522
 46.61600, 1.49833,      -0.13309
 47.20000, 1.55000,      -0.14070
 47.77300, 1.60167,      -0.14868
 48.33300, 1.65333,      -0.15644
 48.88800, 1.70500,      -0.16531
 49.43800, 1.75667,      -0.17421
 49.97300, 1.80833,      -0.18387
 50.50700, 1.86000,      -0.19306
 51.02900, 1.91167,      -0.20286
 51.55300, 1.96333,      -0.21250
 52.06600, 2.01500,      -0.22182
 52.57800, 2.06667,      -0.23186
 53.08300, 2.11833,      -0.24220
 53.58700, 2.17000,      -0.25318
 54.08400, 2.22167,      -0.26332
 54.58900, 2.27333,      -0.27423
 55.08700, 2.32500,      -0.28424
 55.58700, 2.37667,      -0.29566
 56.08700, 2.42833,      -0.30738
 56.58600, 2.48000,      -0.31860
 57.08300, 2.53167,      -0.33064
 57.58300, 2.58333,      -0.34168
 58.08500, 2.63500,      -0.35403
 58.58700, 2.68667,      -0.36586
 59.09000, 2.73833,      -0.37882
 59.59600, 2.79000,      -0.39107
 60.10400, 2.84167,      -0.40413
 60.61300, 2.89333,      -0.41780
 61.12400, 2.94500,      -0.43015
 61.63600, 2.99667,      -0.44331
 62.15200, 3.04833,      -0.45618
 62.66800, 3.10000,      -0.48383
 63.18300, 3.15167,      -0.49277
 63.69800, 3.20333,      -0.50410
 64.21800, 3.25500,      -0.51595
 64.73500, 3.30667,      -0.53749
 65.25600, 3.35833,      -0.55112
 65.78000, 3.41000,      -0.56146
 66.29700, 3.46167,      -0.57379
 66.81800, 3.51333,      -0.58621
 67.34000, 3.56500,      -0.60903
 67.86000, 3.61667,      -0.61935
 68.38200, 3.66833,      -0.63187
 68.90300, 3.72000,      -0.64678
 69.42700, 3.77167,      -0.66711
 69.94800, 3.82333,      -0.67842
 70.46800, 3.87500,      -0.68974
 70.99200, 3.92667,      -0.70675
 71.51500, 3.97833,      -0.72465
 72.03800, 4.03000,      -0.73618
 72.56000, 4.08167,      -0.74817
 73.07500, 4.13333,      -0.77285
 73.59900, 4.18500,      -0.78287
 74.11900, 4.23667,      -0.79466
 74.63800, 4.28833,      -0.80927
 75.15500, 4.34000,      -0.82935
 75.67100, 4.39167,      -0.84034
 76.19500, 4.44333,      -0.85117
 76.71600, 4.49500,      -0.86778
 77.23500, 4.54667,      -0.88498
 77.75400, 4.59833,      -0.89627
 78.27100, 4.65000,      -0.90717
 78.78800, 4.70167,      -0.91976
 79.31000, 4.75333,      -0.93477
 79.82200, 4.80500,      -0.95383
 80.34500, 4.85667,      -0.96426
 80.86200, 4.90833,      -0.97445
 81.38100, 4.96000,      -0.98646
 81.89800, 5.01167,      -0.99845
 82.41600, 5.06333,      -1.02184
 82.93300, 5.11500,      -1.03023
 83.44900, 5.16667,      -1.04023
 83.96600, 5.21833,      -1.05093
 84.48200, 5.27000,      -1.06181
 85.00200, 5.32167,      -1.07433
 85.52300, 5.37333,      -1.08543
 86.04300, 5.42500,      -1.09764
 86.56100, 5.47667,      -1.10883
 87.07800, 5.52833,      -1.12031
 87.59300, 5.58000,      -1.13109
 88.11300, 5.63167,      -1.14230
 88.62800, 5.68333,      -1.15358
 89.14900, 5.73500,      -1.16390
 89.66900, 5.78667,      -1.17408
 90.18600, 5.83833,      -1.18428
 90.70000, 5.89000,      -1.19525
 91.21900, 5.94167,      -1.20576
 91.73600, 5.99333,      -1.21664
 92.25300, 6.04500,      -1.22583
 92.77400, 6.09667,      -1.23553
 93.29200, 6.14833,      -1.24473
 93.80800, 6.20000,      -1.25350
 94.32300, 6.25167,      -1.26299
 94.84400, 6.30333,      -1.27160
 95.35900, 6.35500,      -1.28028
 95.88000, 6.40667,      -1.28808
 96.39300, 6.45833,      -1.29666
 96.91300, 6.51000,      -1.30477
 97.43100, 6.56167,      -1.31346
 97.94500, 6.61333,      -1.32193
 98.46000, 6.66500,      -1.32962
 98.97600, 6.71667,      -1.33751
 99.49300, 6.76833,      -1.34411
100.01, 6.82000,      -1.35190
100.532, 6.87167,      -1.35923
101.045, 6.92333,      -1.36674
101.562, 6.97500,      -1.37475
102.078, 7.02667,      -1.38166
102.595, 7.07833,      -1.38927
103.107, 7.13000,      -1.39596
103.625, 7.18167,      -1.40229
104.138, 7.23333,      -1.40809
104.658, 7.28500,      -1.41430
105.173, 7.33667,      -1.42021
105.692, 7.38833,      -1.42662
106.208, 7.44000,      -1.43231
106.723, 7.49167,      -1.43820
107.235, 7.54333,      -1.44409
107.755, 7.59500,      -1.44921
108.268, 7.64667,      -1.45550
108.788, 7.69833,      -1.46101
109.301, 7.75000,      -1.46609
109.82, 7.80167,      -1.47099
110.334, 7.85333,      -1.47627
110.849, 7.90500,      -1.48106
111.365, 7.95667,      -1.48566
111.883, 8.00833,      -1.49025
112.397, 8.06000,      -1.49453
112.912, 8.11167,      -1.49902
113.426, 8.16333,      -1.50350
113.943, 8.21500,      -1.50798
114.459, 8.26667,      -1.51207
114.975, 8.31833,      -1.51636
115.491, 8.37000,      -1.52133
116.008, 8.42167,      -1.52582
116.527, 8.47333,      -1.52991
117.042, 8.52500,      -1.53348
117.557, 8.57667,      -1.53726
118.077, 8.62833,      -1.54123
118.592, 8.68000,      -1.54501
119.106, 8.73167,      -1.54848
119.621, 8.78333,      -1.55185
120.14, 8.83500,      -1.55543
120.657, 8.88667,      -1.55960
121.169, 8.93833,      -1.56325
121.688, 8.99000,      -1.56623
122.205, 9.04167,      -1.56960
122.72, 9.09333,      -1.57296
123.238, 9.14500,      -1.57554
123.753, 9.19667,      -1.57810
124.271, 9.24833,      -1.58206
124.786, 9.30000,      -1.58532
125.303, 9.35167,      -1.58829
125.817, 9.40333,      -1.59194
126.331, 9.45500,      -1.59589
126.846, 9.50667,      -1.60016
127.362, 9.55833,      -1.60341
127.879, 9.61000,      -1.60668
128.394, 9.66167,      -1.60964
128.909, 9.71333,      -1.61309
129.424, 9.76500,      -1.61645
129.937, 9.81667,      -1.61989
130.452, 9.86833,      -1.62385
130.967, 9.92000,      -1.62751
131.479, 9.97167,      -1.63125
131.998,10.02333,      -1.63432
132.513,10.07500,      -1.63777
133.032,10.12667,      -1.64163
133.549,10.17833,      -1.64568
134.068,10.23000,      -1.64964
134.586,10.28167,      -1.65319
135.104,10.33333,      -1.65704
135.62,10.38500,      -1.66088
136.138,10.43667,      -1.66463
136.655,10.48833,      -1.66877
137.174,10.54000,      -1.67282
137.69,10.59167,      -1.67666
138.206,10.64333,      -1.68120
138.721,10.69500,      -1.68564
139.242,10.74667,      -1.68999
139.76,10.79833,      -1.69423
140.277,10.85000,      -1.69868
140.794,10.90167,      -1.70351
141.312,10.95333,      -1.70825
141.825,11.00500,      -1.71318
142.343,11.05667,      -1.71813
142.858,11.10833,      -1.72326
143.375,11.16000,      -1.72820
143.893,11.21167,      -1.73254
144.412,11.26333,      -1.73788
144.924,11.31500,      -1.74381
145.441,11.36667,      -1.74995
145.957,11.41833,      -1.75618
146.473,11.47000,      -1.76232
146.988,11.52167,      -1.76806
147.506,11.57333,      -1.77449
148.021,11.62500,      -1.78092
148.535,11.67667,      -1.78735
149.049,11.72833,      -1.79399
149.564,11.78000,      -1.80032
150.08,11.83167,      -1.80715
150.597,11.88333,      -1.81359
151.116,11.93500,      -1.82083
151.632,11.98667,      -1.82776
152.153,12.03833,      -1.83540
152.671,12.09000,      -1.84343
153.185,12.14167,      -1.85035
153.708,12.19333,      -1.85799
154.225,12.24500,      -1.86483
154.743,12.29667,      -1.87226
155.264,12.34833,      -1.87959
155.785,12.40000,      -1.88722
156.306,12.45167,      -1.89445
156.826,12.50333,      -1.90228
157.346,12.55500,      -1.90991
157.864,12.60667,      -1.91713
158.383,12.65833,      -1.92436
158.904,12.71000,      -1.93069
159.427,12.76167,      -1.93762
159.947,12.81333,      -1.94404
160.468,12.86500,      -1.95057
160.984,12.91667,      -1.95699
161.506,12.96833,      -1.96342
162.025,13.02000,      -1.96905
162.544,13.07167,      -1.97497
163.064,13.12333,      -1.98090
163.578,13.17500,      -1.98661
164.096,13.22667,      -1.99304
164.611,13.27833,      -1.99846
165.125,13.33000,      -2.00468
165.643,13.38167,      -2.01031
166.157,13.43333,      -2.01643
166.672,13.48500,      -2.02285
167.189,13.53667,      -2.02879
167.702,13.58833,      -2.03531
168.22,13.64000,      -2.04114
168.73,13.69167,      -2.04735
169.248,13.74333,      -2.05318
169.762,13.79500,      -2.05971
170.276,13.84667,      -2.06563
170.787,13.89833,      -2.07185
171.301,13.95000,      -2.07878
171.815,14.00167,      -2.08461
172.33,14.05333,      -2.09104
172.851,14.10500,      -2.09677
173.362,14.15667,      -2.10260
173.878,14.20833,      -2.10833
174.392,14.26000,      -2.11445
174.906,14.31167,      -2.11998
175.422,14.36333,      -2.12611
175.939,14.41500,      -2.13214
176.453,14.46667,      -2.13796
176.969,14.51833,      -2.14389
177.487,14.57000,      -2.14952
178.003,14.62167,      -2.15605
178.517,14.67333,      -2.16198
179.036,14.72500,      -2.16861
179.551,14.77667,      -2.17484
180.07,14.82833,      -2.18097
180.588,14.88000,      -2.18740
181.101,14.93167,      -2.19292
181.62,14.98333,      -2.19935
182.135,15.03500,      -2.20538
182.653,15.08667,      -2.21192
183.171,15.13833,      -2.21815
183.684,15.19000,      -2.22427
184.204,15.24167,      -2.23051
184.72,15.29333,      -2.23714
185.237,15.34500,      -2.24397
185.755,15.39667,      -2.25000
186.27,15.44833,      -2.25644
186.789,15.50000,      -2.26317
187.306,15.55167,      -2.26960
187.821,15.60333,      -2.27563
188.338,15.65500,      -2.28247
188.856,15.70667,      -2.28900
189.375,15.75833,      -2.29544
189.889,15.81000,      -2.30177
190.408,15.86167,      -2.30791
190.925,15.91333,      -2.31474
191.441,15.96500,      -2.32178
191.956,16.01667,      -2.32961
192.472,16.06833,      -2.33655
192.99,16.12000,      -2.34399
193.508,16.17167,      -2.35053
194.025,16.22333,      -2.35827
194.539,16.27500,      -2.36540
195.058,16.32667,      -2.37185
195.575,16.37833,      -2.37859
196.091,16.43000,      -2.38523
196.61,16.48167,      -2.39267
197.128,16.53333,      -2.39981
197.644,16.58500,      -2.40726
198.161,16.63667,      -2.41420
198.678,16.68833,      -2.42164
199.196,16.74000,      -2.42969
199.711,16.79167,      -2.43673
200.23,16.84333,      -2.44418
200.749,16.89500,      -2.45152
201.262,16.94667,      -2.45916
201.778,16.99833,      -2.46731
202.293,17.05000,      -2.47575
202.809,17.10167,      -2.48380
203.324,17.15333,      -2.49275
203.842,17.20500,      -2.50110
204.359,17.25667,      -2.50935
204.875,17.30833,      -2.51779
205.394,17.36000,      -2.52574
205.908,17.41167,      -2.53439
206.425,17.46333,      -2.54203
206.944,17.51500,      -2.55008
207.461,17.56667,      -2.55923
207.977,17.61833,      -2.56868
208.49,17.67000,      -2.57912
209.01,17.72167,      -2.58857
209.527,17.77333,      -2.59822
210.044,17.82500,      -2.60757
210.56,17.87667,      -2.61792
211.075,17.92833,      -2.62806
211.592,17.98000,      -2.63961
212.108,18.03167,      -2.64956
212.623,18.08333,      -2.66081
213.134,18.13500,      -2.67235
213.652,18.18667,      -2.68291
214.171,18.23833,      -2.69476
214.69,18.29000,      -2.70621
215.205,18.34167,      -2.71806
215.723,18.39333,      -2.73021
216.241,18.44500,      -2.75256
216.76,18.49667,      -2.76201
217.276,18.54833,      -2.77246
217.79,18.60000,      -2.78481
218.305,18.65167,      -2.80915
218.821,18.70333,      -2.81841
219.34,18.75500,      -2.82966
219.862,18.80667,      -2.84231
220.38,18.85833,      -2.86666
220.899,18.91000,      -2.87691
221.415,18.96167,      -2.88966
221.934,19.01333,      -2.91481
222.449,19.06500,      -2.92836
222.964,19.11667,      -2.95021
223.481,19.16833,      -2.96396
223.996,19.22000,      -2.97471
224.511,19.27167,      -3.00206
225.027,19.32333,      -3.01901
225.542,19.37500,      -3.03706
226.056,19.42667,      -3.05591
226.572,19.47833,      -3.07247
227.091,19.53000,      -3.09132
227.61,19.58167,      -3.10947
228.126,19.63333,      -3.12892
228.641,19.68500,      -3.14717
229.164,19.73667,      -3.16733
229.681,19.78833,      -3.18688
230.197,19.84000,      -3.20733
230.71,19.89167,      -3.22818
231.23,19.94333,      -3.24773
231.744,19.99500,      -3.26918
232.26,20.04667,      -3.29043
232.777,20.09833,      -3.31159
233.293,20.15000,      -3.33194
233.81,20.20167,      -3.35439
234.327,20.25333,      -3.37374
234.84,20.30500,      -3.39569
235.361,20.35667,      -3.41755
235.876,20.40833,      -3.43860
236.392,20.46000,      -3.46075
236.91,20.51167,      -3.48160
237.425,20.56333,      -3.50505
237.94,20.61500,      -3.52761
238.456,20.66667,      -3.55176
238.97,20.71833,      -3.57301
239.486,20.77000,      -3.59626
240.001,20.82167,      -3.61871
240.519,20.87333,      -3.64187
241.037,20.92500,      -3.66612
241.555,20.97667,      -3.68827
242.073,21.02833,      -3.71243
242.59,21.08000,      -3.73538
243.106,21.13167,      -3.76083
243.624,21.18333,      -3.78338
244.141,21.23500,      -3.80793
244.658,21.28667,      -3.83389
245.175,21.33833,      -3.85764
245.691,21.39000,      -3.88289
246.211,21.44167,      -3.90774
246.727,21.49333,      -3.93250
247.246,21.54500,      -3.95695
247.759,21.59667,      -3.98340
248.275,21.64833,      -4.00715
248.791,21.70000,      -4.03390
249.307,21.75167,      -4.06095
249.821,21.80333,      -4.08590
250.338,21.85500,      -4.11216
250.857,21.90667,      -4.13691
251.37,21.95833,      -4.16386
251.887,22.01000,      -4.18871
252.407,22.06167,      -4.21497
252.917,22.11333,      -4.23922
253.437,22.16500,      -4.26587
253.951,22.21667,      -4.29252
254.464,22.26833,      -4.31697
254.981,22.32000,      -4.34352
255.495,22.37167,      -4.36788
256.009,22.42333,      -4.39413
256.526,22.47500,      -4.41918
257.042,22.52667,      -4.44573
257.557,22.57833,      -4.47018
258.072,22.63000,      -4.49574
258.589,22.68167,      -4.52159
259.105,22.73333,      -4.54564
259.62,22.78500,      -4.57029
260.138,22.83667,      -4.59434
260.657,22.88833,      -4.61929
261.172,22.94000,      -4.64244
261.689,22.99167,      -4.66789
262.205,23.04333,      -4.69105
262.72,23.09500,      -4.71550
263.236,23.14667,      -4.73875
263.755,23.19833,      -4.76260
264.27,23.25000,      -4.78705
264.787,23.30167,      -4.80950
265.303,23.35333,      -4.83285
265.82,23.40500,      -4.85500
266.334,23.45667,      -4.87915
266.852,23.50833,      -4.90130
267.367,23.56000,      -4.92505
267.884,23.61167,      -4.94860
268.399,23.66333,      -4.97045
268.917,23.71500,      -4.99420
269.433,23.76667,      -5.01585
269.949,23.81833,      -5.03850
270.469,23.87000,      -5.05955
270.984,23.92167,      -5.08290
271.504,23.97333,      -5.10445
272.023,24.02500,      -5.12770
272.538,24.07667,      -5.15114
273.055,24.12833,      -5.17259
273.573,24.18000,      -5.19504
274.09,24.23167,      -5.21619
274.607,24.28333,      -5.23894
275.123,24.33500,      -5.26059
275.639,24.38667,      -5.28353
276.155,24.43833,      -5.30478
276.671,24.49000,      -5.32643
277.186,24.54167,      -5.34968
277.702,24.59333,      -5.37083
278.22,24.64500,      -5.39327
278.736,24.69667,      -5.41372
279.251,24.74833,      -5.43667
279.768,24.80000,      -5.45812
280.286,24.85167,      -5.48036
280.802,24.90333,      -5.50271
281.318,24.95500,      -5.52566
281.842,25.00667,      -5.54770
282.355,25.05833,      -5.56925
282.874,25.11000,      -5.59250
283.411,25.16167,      -5.61454
283.927,25.21333,      -5.63709
284.441,25.26500,      -5.65833
284.952,25.31667,      -5.68128
285.465,25.36833,      -5.70472
285.979,25.42000,      -5.72637
286.491,25.47167,      -5.74972
287.005,25.52333,      -5.77166
287.523,25.57500,      -5.79581
288.037,25.62667,      -5.81765
288.553,25.67833,      -5.84190
289.065,25.73000,      -5.86434
289.583,25.78167,      -5.88788
290.097,25.83333,      -5.91193
290.616,25.88500,      -5.93437
291.131,25.93667,      -5.95922
291.648,25.98833,      -5.98216
292.167,26.04000,      -6.00720
292.683,26.09167,      -6.03154
293.197,26.14333,      -6.05699
293.712,26.19500,      -6.08283
294.227,26.24667,      -6.10647
294.745,26.29833,      -6.12992
295.26,26.35000,      -6.15576
295.778,26.40167,      -6.18180
296.296,26.45333,      -6.20614
296.812,26.50500,      -6.23358
297.329,26.55667,      -6.25962
297.848,26.60833,      -6.28696
298.364,26.66000,      -6.31290
298.881,26.71167,      -6.34005
299.399,26.76333,      -6.36819
299.918,26.81500,      -6.39513
300.434,26.86667,      -6.42387
300.951,26.91833,      -6.45081
301.47,26.97000,      -6.47945
301.984,27.02167,      -6.50689
302.501,27.07333,      -6.53583
303.02,27.12500,      -6.56437
303.536,27.17667,      -6.59501
304.053,27.22833,      -6.62625
304.566,27.28000,      -6.65529
305.084,27.33167,      -6.68663
305.601,27.38333,      -6.71707
306.119,27.43500,      -6.74911
306.633,27.48667,      -6.78035
307.151,27.53833,      -6.81409
307.669,27.59000,      -6.84553
308.183,27.64167,      -6.88067
308.697,27.69333,      -6.91511
309.215,27.74500,      -6.94805
309.732,27.79667,      -6.98309
310.249,27.84833,      -7.01563
310.767,27.90000,      -7.05137
311.283,27.95167,      -7.08511
311.802,28.00333,      -7.12225
312.316,28.05500,      -7.15749
312.835,28.10667,      -7.19493
313.35,28.15833,      -7.23167
313.868,28.21000,      -7.26701
314.385,28.26167,      -7.30475
314.901,28.31333,      -7.34149
315.417,28.36500,      -7.37903
315.93,28.41667,      -7.41507
316.446,28.46833,      -7.45141
316.96,28.52000,      -7.48545
317.473,28.57167,      -7.52289
317.989,28.62333,      -7.55963
318.516,28.67500,      -7.59427
319.036,28.72667,      -7.62941
319.547,28.77833,      -7.66155
320.059,28.83000,      -7.69599
320.574,28.88167,      -7.72673
321.086,28.93333,      -7.75917
321.604,28.98500,      -7.78881
322.117,29.03667,      -7.81965
322.629,29.08833,      -7.84899
323.142,29.14000,      -7.87603
323.655,29.19167,      -7.90367
324.172,29.24333,      -7.92811
324.689,29.29500,      -7.95385
325.204,29.34667,      -7.97699
325.72,29.39833,      -8.00213
326.238,29.45000,      -8.02507
326.752,29.50167,      -8.04831
327.267,29.55333,      -8.07145
327.781,29.60500,      -8.09149
328.297,29.65667,      -8.11303
328.817,29.70833,      -8.13157
329.334,29.76000,      -8.15130
329.852,29.81167,      -8.16964
330.369,29.86333,      -8.18968
330.886,29.91500,      -8.20622
331.404,29.96667,      -8.22366
331.921,30.01833,      -8.23510
332.439,30.07000,      -8.24654
332.959,30.12167,      -8.27208
333.48,30.17333,      -8.28831
333.999,30.22500,      -8.30395
334.514,30.27667,      -8.31389
335.029,30.32833,      -8.33563
335.544,30.38000,      -8.34577
336.06,30.43167,      -8.35691
336.577,30.48333,      -8.36935
337.094,30.53500,      -8.39289
337.609,30.58667,      -8.40353
338.123,30.63833,      -8.41466
338.636,30.69000,      -8.43140
339.155,30.74167,      -8.44854
339.671,30.79333,      -8.45878
340.188,30.84500,      -8.46941
340.705,30.89667,      -8.48185
341.223,30.94833,      -8.49499
341.741,31.00000,      -8.50693
342.26,31.05167,      -8.51996
342.777,31.10333,      -8.53170
343.295,31.15500,      -8.54334
343.815,31.20667,      -8.55458
344.33,31.25833,      -8.56711
344.847,31.31000,      -8.57985
345.362,31.36167,      -8.59229
345.881,31.41333,      -8.60493
346.392,31.46500,      -8.61736
346.911,31.51667,      -8.64010
347.423,31.56833,      -8.64734
347.942,31.62000,      -8.65577
348.458,31.67167,      -8.66521
348.977,31.72333,      -8.67635
349.493,31.77500,      -8.68798
350.007,31.82667,      -8.71232
350.524,31.87833,      -8.72016
351.041,31.93000,      -8.72909
351.554,31.98167,      -8.73813
352.072,32.03333,      -8.74796
352.589,32.08500,      -8.75900
353.103,32.13667,      -8.76984
353.619,32.18833,      -8.78127
354.137,32.24000,      -8.79191
354.658,32.29167,      -8.80334
355.173,32.34333,      -8.81328
355.69,32.39500,      -8.82361
356.208,32.44667,      -8.83525
356.722,32.49833,      -8.84708
357.237,32.55000,      -8.87062
357.752,32.60167,      -8.87745
358.269,32.65333,      -8.88649
358.782,32.70500,      -8.89532
359.299,32.75667,      -8.90626
359.813,32.80833,      -8.91609
360.332,32.86000,      -8.92542
360.848,32.91167,      -8.93586
361.365,32.96333,      -8.94599
361.886,33.01500,      -8.95742
362.404,33.06667,      -8.96766
362.919,33.11833,      -8.97789
363.436,33.17000,      -8.98772
363.952,33.22167,      -8.99846
364.466,33.27333,      -9.00989
364.981,33.32500,      -9.02013
365.497,33.37667,      -9.03126
366.012,33.42833,      -9.04149
366.529,33.48000,      -9.05242
367.043,33.53167,      -9.06256
367.563,33.58333,      -9.07259
368.079,33.63500,      -9.08252
368.597,33.68667,      -9.09315
369.114,33.73833,      -9.10298
369.631,33.79000,      -9.11231
370.15,33.84167,      -9.12184
370.667,33.89333,      -9.13128
371.183,33.94500,      -9.14231
371.697,33.99667,      -9.15264
372.212,34.04833,      -9.16397
372.724,34.10000,      -9.17531
373.237,34.15167,      -9.18734
373.755,34.20333,      -9.19736
374.271,34.25500,      -9.20609
374.791,34.30667,      -9.21582
375.308,34.35833,      -9.22565
375.824,34.41000,      -9.23668
376.343,34.46167,      -9.24561
376.859,34.51333,      -9.25554
377.375,34.56500,      -9.26547
377.891,34.61667,      -9.27540
378.404,34.66833,      -9.28613
378.925,34.72000,      -9.29546
379.44,34.77167,      -9.30588
379.956,34.82333,      -9.31581
380.47,34.87500,      -9.32634
380.983,34.92667,      -9.33617
381.498,34.97833,      -9.34640
382.016,35.03000,      -9.35633
382.532,35.08167,      -9.36555
383.049,35.13333,      -9.37468
383.569,35.18500,      -9.38350
384.086,35.23667,      -9.39283
384.606,35.28833,      -9.40216
385.122,35.34000,      -9.41268
385.637,35.39167,      -9.42251
386.154,35.44333,      -9.43274
386.667,35.49500,      -9.44237
387.18,35.54667,      -9.45250
387.696,35.59833,      -9.46252
388.21,35.65000,      -9.47245
388.727,35.70167,      -9.48337
389.243,35.75333,      -9.49249
389.762,35.80500,      -9.50252
390.279,35.85667,      -9.51194
390.795,35.90833,      -9.52097
391.313,35.96000,      -9.52999
391.832,36.01167,      -9.53881
392.348,36.06333,      -9.54834
392.862,36.11500,      -9.55716
393.376,36.16667,      -9.56719
393.89,36.21833,      -9.57691
394.407,36.27000,      -9.58623
394.923,36.32167,      -9.59466
395.441,36.37333,      -9.60338
395.957,36.42500,      -9.61270
396.476,36.47667,      -9.62172
396.992,36.52833,      -9.63184
397.506,36.58000,      -9.64156
398.024,36.63167,      -9.65199
398.539,36.68333,      -9.66161
399.048,36.73500,      -9.67053
399.567,36.78667,      -9.67955
400.082,36.83833,      -9.68947
400.6,36.89000,      -9.69909
401.117,36.94167,      -9.70781
401.635,36.99333,      -9.71643
402.151,37.04500,      -9.72535
402.671,37.09667,      -9.73457
403.187,37.14833,      -9.74249
403.701,37.20000,      -9.75111
404.219,37.25167,      -9.75973
404.738,37.30333,      -9.76925
405.253,37.35500,      -9.77917
405.767,37.40667,      -9.78779
406.282,37.45833,      -9.79761
406.801,37.51000,      -9.80682
407.317,37.56167,      -9.81584
407.832,37.61333,      -9.82446
408.348,37.66500,      -9.83338
408.866,37.71667,      -9.84220
409.379,37.76833,      -9.85122
409.897,37.82000,      -9.85954
410.412,37.87167,      -9.86725
410.928,37.92333,      -9.87597
411.446,37.97500,      -9.88529
411.963,38.02667,      -9.89460
412.482,38.07833,      -9.90242
413.004,38.13000,      -9.91034
413.523,38.18167,      -9.91875
414.038,38.23333,      -9.92897
414.555,38.28500,      -9.93859
415.07,38.33667,      -9.94751
415.586,38.38833,      -9.95703
416.101,38.44000,      -9.96584
416.614,38.49167,      -9.97536
417.131,38.54333,      -9.98388
417.646,38.59500,      -9.99390
418.16,38.64667,     -10.00271
418.675,38.69833,     -10.01163
419.193,38.75000,     -10.02034
419.711,38.80167,     -10.02785
420.229,38.85333,     -10.03617
420.745,38.90500,     -10.04379
421.262,38.95667,     -10.05230
421.779,39.00833,     -10.06052
422.296,39.06000,     -10.06913
422.811,39.11167,     -10.07725
423.329,39.16333,     -10.08546
423.844,39.21500,     -10.09378
424.362,39.26667,     -10.10179
424.879,39.31833,     -10.11110
425.395,39.37000,     -10.12082
425.909,39.42167,     -10.12944
426.426,39.47333,     -10.13715
426.941,39.52500,     -10.14516
427.459,39.57667,     -10.15328
427.974,39.62833,     -10.16239
428.489,39.68000,     -10.17101
429.004,39.73167,     -10.17992
429.52,39.78333,     -10.18983
430.032,39.83500,     -10.19885
430.55,39.88667,     -10.20746
431.069,39.93833,     -10.21437
431.585,39.99000,     -10.22308
432.099,40.04167,     -10.23230
432.617,40.09333,     -10.24191
433.133,40.14500,     -10.25172
433.65,40.19667,     -10.25993
434.166,40.24833,     -10.26885
434.682,40.30000,     -10.27786
435.197,40.35167,     -10.28787
435.712,40.40333,     -10.29729
436.228,40.45500,     -10.30670
436.746,40.50667,     -10.31601
437.259,40.55833,     -10.32462
437.774,40.61000,     -10.33293
438.293,40.66167,     -10.34074
438.812,40.71333,     -10.34975
439.329,40.76500,     -10.35916
439.849,40.81667,     -10.36707
440.365,40.86833,     -10.37488
440.881,40.92000,     -10.38439
441.402,40.97167,     -10.39230
441.914,41.02333,     -10.40102
442.431,41.07500,     -10.41023
442.949,41.12667,     -10.42084
443.465,41.17833,     -10.43135
443.976,41.23000,     -10.44076
444.491,41.28167,     -10.45087
445.008,41.33333,     -10.45978
445.524,41.38500,     -10.46949
446.037,41.43667,     -10.47810
446.555,41.48833,     -10.48691
447.071,41.54000,     -10.49592
447.588,41.59167,     -10.50412
448.107,41.64333,     -10.51353
448.625,41.69500,     -10.52204
449.14,41.74667,     -10.53155
449.653,41.79833,     -10.54016
450.169,41.85000,     -10.54977
450.686,41.90167,     -10.55918
451.2,41.95333,     -10.56889
451.716,42.00500,     -10.57849
452.234,42.05667,     -10.58720
452.746,42.10833,     -10.59631
453.264,42.16000,     -10.60552
453.784,42.21167,     -10.61462
454.298,42.26333,     -10.62383
454.815,42.31500,     -10.63424
455.333,42.36667,     -10.64325
455.85,42.41833,     -10.65235
456.365,42.47000,     -10.66196
456.88,42.52167,     -10.67107
457.396,42.57333,     -10.68158
457.913,42.62500,     -10.69048
458.423,42.67667,     -10.70059
458.941,42.72833,     -10.71010
459.455,42.78000,     -10.72061
459.97,42.83167,     -10.73001
460.488,42.88333,     -10.73971
461.004,42.93500,     -10.74982
461.524,42.98667,     -10.75872
462.038,43.03833,     -10.76903
462.559,43.09000,     -10.77803
463.078,43.14167,     -10.78684
463.592,43.19333,     -10.79574
464.109,43.24500,     -10.80455
464.623,43.29667,     -10.81346
465.142,43.34833,     -10.82216
465.656,43.40000,     -10.83187
466.17,43.45167,     -10.84098
466.688,43.50333,     -10.84958
467.204,43.55500,     -10.85808
467.722,43.60667,     -10.86669
468.239,43.65833,     -10.87479
468.755,43.71000,     -10.88349
469.271,43.76167,     -10.89230
469.787,43.81333,     -10.90030
470.304,43.86500,     -10.90790
470.82,43.91667,     -10.91481
471.336,43.96833,     -10.92241
471.852,44.02000,     -10.92942
472.368,44.07167,     -10.93702
472.88,44.12333,     -10.94413
473.394,44.17500,     -10.95243
473.914,44.22667,     -10.96043
474.433,44.27833,     -10.96693
474.949,44.33000,     -10.97383
475.463,44.38167,     -10.98024
475.977,44.43333,     -10.98834
476.494,44.48500,     -10.99524
477.008,44.53667,     -11.00245
477.52,44.58833,     -11.00855
478.04,44.64000,     -11.01425
478.555,44.69167,     -11.01945
479.071,44.74333,     -11.02495
479.584,44.79500,     -11.03146
480.105,44.84667,     -11.03735
480.622,44.89833,     -11.04276
481.139,44.95000,     -11.04756
481.658,45.00167,     -11.05286
482.173,45.05333,     -11.05816
482.691,45.10500,     -11.06376
483.212,45.15667,     -11.06916
483.725,45.20833,     -11.07486
484.24,45.26000,     -11.08006
484.756,45.31167,     -11.08496
485.272,45.36333,     -11.09056
485.789,45.41500,     -11.09476
486.305,45.46667,     -11.09966
486.817,45.51833,     -11.10437
487.333,45.57000,     -11.10947
487.852,45.62167,     -11.11456
488.37,45.67333,     -11.11946
488.885,45.72500,     -11.12486
489.402,45.77667,     -11.12986
489.916,45.82833,     -11.13486
490.432,45.88000,     -11.13966
490.947,45.93167,     -11.14466
491.468,45.98333,     -11.14905
491.981,46.03500,     -11.15336
492.497,46.08667,     -11.15785
493.014,46.13833,     -11.16185
493.529,46.19000,     -11.16605
494.048,46.24167,     -11.17015
494.562,46.29333,     -11.17475
495.08,46.34500,     -11.17924
495.597,46.39667,     -11.18324
496.113,46.44833,     -11.18674
496.634,46.50000,     -11.19053
497.147,46.55167,     -11.19443
497.668,46.60333,     -11.19793
498.182,46.65500,     -11.20173
498.698,46.70667,     -11.20593
499.212,46.75833,     -11.21063
499.729,46.81000,     -11.21452
500.243,46.86167,     -11.21882
500.761,46.91333,     -11.22361
501.276,46.96500,     -11.22841
501.791,47.01667,     -11.23281
502.307,47.06833,     -11.23640
502.823,47.12000,     -11.24090
503.336,47.17167,     -11.24530
503.853,47.22333,     -11.25019
504.371,47.27500,     -11.25449
504.884,47.32667,     -11.25889
505.401,47.37833,     -11.26278
505.917,47.43000,     -11.26678
506.433,47.48167,     -11.26947
506.95,47.53333,     -11.27187
507.466,47.58500,     -11.27496
507.985,47.63667,     -11.27826
508.503,47.68833,     -11.28205
509.019,47.74000,     -11.28645
509.536,47.79167,     -11.29044
510.051,47.84333,     -11.29434
510.566,47.89500,     -11.29834
511.083,47.94667,     -11.30203
511.597,47.99833,     -11.30543
512.115,48.05000,     -11.30922
512.629,48.10167,     -11.31292
513.146,48.15333,     -11.31651
513.662,48.20500,     -11.31961
514.176,48.25667,     -11.32310
514.691,48.30833,     -11.32630
515.209,48.36000,     -11.32969
515.723,48.41167,     -11.33349
516.239,48.46333,     -11.33708
516.757,48.51500,     -11.34057
517.273,48.56667,     -11.34387
517.789,48.61833,     -11.34756
518.306,48.67000,     -11.35005
518.822,48.72167,     -11.35455
519.335,48.77333,     -11.35835
519.853,48.82500,     -11.36164
520.367,48.87667,     -11.36533
520.879,48.92833,     -11.36863
521.395,48.98000,     -11.37202
521.909,49.03167,     -11.37482
522.428,49.08333,     -11.37770
522.949,49.13500,     -11.38099
523.462,49.18667,     -11.38569
523.979,49.23833,     -11.38938
524.496,49.29000,     -11.39227
525.014,49.34167,     -11.39477
525.53,49.39333,     -11.39766
526.048,49.44500,     -11.40015
526.566,49.49667,     -11.40254
527.079,49.54833,     -11.40513
527.598,49.60000,     -11.40663
528.114,49.65167,     -11.40872
528.629,49.70333,     -11.41181
529.144,49.75500,     -11.41641
529.658,49.80667,     -11.42170
530.171,49.85833,     -11.42609
530.685,49.91000,     -11.43139
531.202,49.96167,     -11.43628
531.718,50.01333,     -11.44047
532.234,50.06500,     -11.44205
532.754,50.11667,     -11.44304
533.274,50.16833,     -11.44393
533.793,50.22000,     -11.44502
534.314,50.27167,     -11.44681
534.825,50.32333,     -11.45020
535.342,50.37500,     -11.45370
535.858,50.42667,     -11.45699
536.373,50.47833,     -11.46068
536.89,50.53000,     -11.46367
537.404,50.58167,     -11.46706
537.921,50.63333,     -11.47005
538.439,50.68500,     -11.47254
538.955,50.73667,     -11.47523
539.475,50.78833,     -11.47761
539.991,50.84000,     -11.48061
540.506,50.89167,     -11.48310
541.024,50.94333,     -11.48628
541.54,50.99500,     -11.48927
542.055,51.04667,     -11.49226
542.571,51.09833,     -11.49545
543.086,51.15000,     -11.49874
543.602,51.20167,     -11.50173
544.117,51.25333,     -11.50462
544.634,51.30500,     -11.50771
545.151,51.35667,     -11.51000
545.666,51.40833,     -11.51228
546.18,51.46000,     -11.51468
546.696,51.51167,     -11.51706
547.212,51.56333,     -11.51965
547.726,51.61500,     -11.52274
548.243,51.66667,     -11.52542
548.76,51.71833,     -11.52811
549.277,51.77000,     -11.53060
549.794,51.82167,     -11.53298
550.315,51.87333,     -11.53537
550.83,51.92500,     -11.53736
551.348,51.97667,     -11.53994
551.864,52.02833,     -11.54243
552.38,52.08000,     -11.54502
552.897,52.13167,     -11.54780
553.412,52.18333,     -11.55079
553.929,52.23500,     -11.55368
554.445,52.28667,     -11.55596
554.96,52.33833,     -11.55885
555.476,52.39000,     -11.56163
555.992,52.44167,     -11.56462
556.513,52.49333,     -11.56740
557.031,52.54500,     -11.56989
557.547,52.59667,     -11.57207
558.067,52.64833,     -11.57396
558.583,52.70000,     -11.57634
559.103,52.75167,     -11.57872
559.617,52.80333,     -11.58121
560.136,52.85500,     -11.58409
560.652,52.90667,     -11.58638
561.166,52.95833,     -11.58897
561.681,53.01000,     -11.59315
562.193,53.06167,     -11.59674
562.709,53.11333,     -11.59872
563.222,53.16500,     -11.60201
563.734,53.21667,     -11.60579
564.253,53.26833,     -11.60957
564.772,53.32000,     -11.61125
565.288,53.37167,     -11.61263
565.808,53.42333,     -11.61531
566.325,53.47500,     -11.61810
566.842,53.52667,     -11.62118
567.357,53.57833,     -11.62366
567.874,53.63000,     -11.62555
568.391,53.68167,     -11.62733
568.911,53.73333,     -11.63011
569.423,53.78500,     -11.63269
569.941,53.83667,     -11.63557
570.462,53.88833,     -11.63845
570.98,53.94000,     -11.64103
571.499,53.99167,     -11.64361
572.017,54.04333,     -11.64629
572.534,54.09500,     -11.64877
573.049,54.14667,     -11.65156
573.567,54.19833,     -11.65444
574.078,54.25000,     -11.65652
574.597,54.30167,     -11.65890
575.11,54.35333,     -11.66168
575.628,54.40500,     -11.66406
576.143,54.45667,     -11.66644
576.659,54.50833,     -11.66872
577.177,54.56000,     -11.67130
577.696,54.61167,     -11.67357
578.212,54.66333,     -11.67665
578.727,54.71500,     -11.68044
579.239,54.76667,     -11.68362
579.757,54.81833,     -11.68630
580.271,54.87000,     -11.68838
580.791,54.92167,     -11.69085
581.307,54.97333,     -11.69413
581.821,55.02500,     -11.69751
582.337,55.07667,     -11.70088
582.853,55.12833,     -11.70386
583.37,55.18000,     -11.70794
583.885,55.23167,     -11.71062
584.406,55.28333,     -11.71189
584.926,55.33500,     -11.71336
585.443,55.38667,     -11.71564
585.959,55.43833,     -11.71912
586.476,55.49000,     -11.72309
586.99,55.54167,     -11.72578
587.509,55.59333,     -11.72835
588.023,55.64500,     -11.73273
588.537,55.69667,     -11.73700
589.056,55.74833,     -11.73978
589.573,55.80000,     -11.74125
590.086,55.85167,     -11.74303
590.605,55.90333,     -11.74570
591.119,55.95500,     -11.74978
591.638,56.00667,     -11.75365
592.155,56.05833,     -11.75713
592.675,56.11000,     -11.76000
593.189,56.16167,     -11.76287
593.705,56.21333,     -11.76725
594.225,56.26500,     -11.76872
594.741,56.31667,     -11.76939
595.256,56.36833,     -11.77307
595.772,56.42000,     -11.77894
596.288,56.47167,     -11.78201
596.804,56.52333,     -11.78489
597.324,56.57500,     -11.78736
597.839,56.62667,     -11.79023
598.364,56.67833,     -11.79160
598.881,56.73000,     -11.79437
599.4,56.78167,     -11.79754
599.914,56.83333,     -11.80092
600.428,56.88500,     -11.80519
600.943,56.93667,     -11.80906
601.455,56.98833,     -11.81354
601.97,57.04000,     -11.81721
602.487,57.09167,     -11.82058
603.003,57.14333,     -11.82395
603.519,57.19500,     -11.82642
604.039,57.24667,     -11.82938
604.555,57.29833,     -11.83255
605.076,57.35000,     -11.83562
605.593,57.40167,     -11.83879
606.11,57.45333,     -11.84176
606.628,57.50500,     -11.84473
607.145,57.55667,     -11.84840
607.663,57.60833,     -11.85177
608.178,57.66000,     -11.85504
608.694,57.71167,     -11.85821
609.211,57.76333,     -11.86158
609.724,57.81500,     -11.86595
610.239,57.86667,     -11.87002
610.754,57.91833,     -11.87398
611.271,57.97000,     -11.87745
611.787,58.02167,     -11.88092
612.304,58.07333,     -11.88448
612.821,58.12500,     -11.88735
613.34,58.17667,     -11.89051
613.858,58.22833,     -11.89378
614.375,58.28000,     -11.89775
614.891,58.33167,     -11.90092
615.407,58.38333,     -11.90578
615.923,58.43500,     -11.90985
616.437,58.48667,     -11.91422
616.95,58.53833,     -11.91849
617.467,58.59000,     -11.92165
617.984,58.64167,     -11.92481
618.499,58.69333,     -11.92848
619.017,58.74500,     -11.93245
619.537,58.79667,     -11.93611
620.054,58.84833,     -11.93947
620.572,58.90000,     -11.94244
621.088,58.95167,     -11.94650
621.603,59.00333,     -11.95057
622.12,59.05500,     -11.95413
622.634,59.10667,     -11.95810
623.15,59.15833,     -11.96226
623.664,59.21000,     -11.96673
624.182,59.26167,     -11.97239
624.7,59.31333,     -11.97705
625.215,59.36500,     -11.98132
625.734,59.41667,     -11.98478
626.253,59.46833,     -11.98834
626.769,59.52000,     -11.99220
627.285,59.57167,     -11.99617
627.801,59.62333,     -12.00013
628.316,59.67500,     -12.00449
628.831,59.72667,     -12.00886
629.348,59.77833,     -12.01322
629.86,59.83000,     -12.01768
630.375,59.88167,     -12.02205
630.892,59.93333,     -12.02681
631.411,59.98500,     -12.03077
631.928,60.03667,     -12.03553
632.447,60.08833,     -12.04039
632.966,60.14000,     -12.04485
633.479,60.19167,     -12.04901
634.002,60.24333,     -12.05307
634.515,60.29500,     -12.05733
635.027,60.34667,     -12.06120
635.543,60.39833,     -12.06516
636.056,60.45000,     -12.06992
636.573,60.50167,     -12.07488
637.092,60.55333,     -12.07953
637.612,60.60500,     -12.08409
638.131,60.65667,     -12.08935
638.647,60.70833,     -12.09511
639.164,60.76000,     -12.09987
639.678,60.81167,     -12.10443
640.198,60.86333,     -12.10859
640.715,60.91500,     -12.11245
641.228,60.96667,     -12.11701
641.748,61.01833,     -12.12147
642.264,61.07000,     -12.12673
642.78,61.12167,     -12.13138
643.296,61.17333,     -12.13604
643.811,61.22500,     -12.14160
644.328,61.27667,     -12.14616
644.85,61.32833,     -12.15101
645.364,61.38000,     -12.15527
645.88,61.43167,     -12.16003
646.395,61.48333,     -12.16359
646.911,61.53500,     -12.16745
647.421,61.58667,     -12.17191
647.938,61.63833,     -12.17707
648.452,61.69000,     -12.18193
648.967,61.74167,     -12.18639
649.482,61.79333,     -12.19184
649.998,61.84500,     -12.19720
650.518,61.89667,     -12.20145
651.037,61.94833,     -12.20470
651.554,62.00000,     -12.20856
652.067,62.05167,     -12.21302
652.582,62.10333,     -12.21868
653.096,62.15500,     -12.22414
653.609,62.20667,     -12.22890
654.124,62.25833,     -12.23395
654.641,62.31000,     -12.23830
655.159,62.36167,     -12.24256
655.678,62.41333,     -12.24681
656.195,62.46500,     -12.25167
656.714,62.51667,     -12.25612
657.229,62.56833,     -12.26137
657.746,62.62000,     -12.26593
658.264,62.67167,     -12.27029
658.781,62.72333,     -12.27494
659.294,62.77500,     -12.27840
659.812,62.82667,     -12.28165
660.333,62.87833,     -12.28500
660.848,62.93000,     -12.28866
661.364,62.98167,     -12.29291
661.88,63.03333,     -12.29687
662.397,63.08500,     -12.30072
662.915,63.13667,     -12.30448
663.43,63.18833,     -12.30873
663.945,63.24000,     -12.31309
664.462,63.29167,     -12.31704
664.976,63.34333,     -12.31969
665.498,63.39500,     -12.32184
666.013,63.44667,     -12.32310
666.532,63.49833,     -12.32635
667.051,63.55000,     -12.32930
667.568,63.60167,     -12.33145
668.084,63.65333,     -12.33311
668.603,63.70500,     -12.33426
669.123,63.75667,     -12.33511
669.639,63.80833,     -12.33616
670.157,63.86000,     -12.33831
670.67,63.91167,     -12.34067
671.187,63.96333,     -12.34302
671.701,64.01500,     -12.34558
672.213,64.06667,     -12.34773
672.73,64.11833,     -12.35018
673.244,64.17000,     -12.35204
673.763,64.22167,     -12.35428
674.28,64.27333,     -12.35584
674.795,64.32500,     -12.35719
675.317,64.37667,     -12.35844
675.831,64.42833,     -12.35959
676.35,64.48000,     -12.36064
676.864,64.53167,     -12.36159
677.379,64.58333,     -12.36345
677.893,64.63500,     -12.36620
678.404,64.68667,     -12.36945
678.923,64.73833,     -12.37150
679.439,64.79000,     -12.37255
679.956,64.84167,     -12.37340
680.473,64.89333,     -12.37405
680.993,64.94500,     -12.37490
681.509,64.99667,     -12.37605
682.027,65.04833,     -12.37710
682.544,65.10000,     -12.37825
683.059,65.15167,     -12.37950
683.574,65.20333,     -12.38085
684.089,65.25500,     -12.38240
684.606,65.30667,     -12.38435
685.121,65.35833,     -12.38670
685.642,65.41000,     -12.38825
686.159,65.46167,     -12.39010
686.675,65.51333,     -12.39215
687.196,65.56500,     -12.39360
687.713,65.61667,     -12.39515
688.227,65.66833,     -12.39700
688.742,65.72000,     -12.39965
689.259,65.77167,     -12.40150
689.775,65.82333,     -12.40305
690.292,65.87500,     -12.40450
690.805,65.92667,     -12.40585
691.324,65.97833,     -12.40689
691.839,66.03000,     -12.40814
692.355,66.08167,     -12.40949
692.874,66.13333,     -12.41044
693.389,66.18500,     -12.41169
693.908,66.23667,     -12.41294
694.423,66.28833,     -12.41399
694.939,66.34000,     -12.41533
695.458,66.39167,     -12.41718
695.974,66.44333,     -12.41923
696.488,66.49500,     -12.42108
697.005,66.54667,     -12.42273
697.522,66.59833,     -12.42348
698.041,66.65000,     -12.42462
698.555,66.70167,     -12.42627
699.075,66.75333,     -12.42792
699.595,66.80500,     -12.42876
700.11,66.85667,     -12.43121
700.626,66.90833,     -12.43346
701.14,66.96000,     -12.43491
701.657,67.01167,     -12.43616
702.176,67.06333,     -12.43710
702.692,67.11500,     -12.43795
703.208,67.16667,     -12.43910
703.723,67.21833,     -12.44015
704.24,67.27000,     -12.44130
704.756,67.32167,     -12.44234
705.273,67.37333,     -12.44329
705.788,67.42500,     -12.44414
706.308,67.47667,     -12.44519
706.82,67.52833,     -12.44614
707.336,67.58000,     -12.44749
707.854,67.63167,     -12.44903
708.371,67.68333,     -12.45128
708.885,67.73500,     -12.45393
709.4,67.78667,     -12.45628
709.919,67.83833,     -12.45832
710.433,67.89000,     -12.45957
710.946,67.94167,     -12.46052
711.463,67.99333,     -12.46117
711.98,68.04500,     -12.46121
712.496,68.09667,     -12.46166
713.01,68.14833,     -12.46241
713.528,68.20000,     -12.46366
714.044,68.25167,     -12.46490
714.562,68.30333,     -12.46705
715.078,68.35500,     -12.47030
715.592,68.40667,     -12.47365
716.11,68.45833,     -12.47629
716.629,68.51000,     -12.47764
717.146,68.56167,     -12.47818
717.663,68.61333,     -12.47883
718.18,68.66500,     -12.47868
718.698,68.71667,     -12.47812
719.214,68.76833,     -12.47817
719.727,68.82000,     -12.47922
720.243,68.87167,     -12.48177
720.76,68.92333,     -12.48422
721.275,68.97500,     -12.48506
721.791,69.02667,     -12.48511
722.306,69.07833,     -12.48556
722.821,69.13000,     -12.48830
723.334,69.18167,     -12.49145
723.85,69.23333,     -12.49470
724.365,69.28500,     -12.49734
724.879,69.33667,     -12.49789
725.398,69.38833,     -12.49833
725.916,69.44000,     -12.49858
726.437,69.49167,     -12.49872
726.955,69.54333,     -12.49917
727.475,69.59500,     -12.49991
727.991,69.64667,     -12.50036
728.505,69.69833,     -12.50161
729.022,69.75000,     -12.50275
729.538,69.80167,     -12.50400
730.055,69.85333,     -12.50474
730.57,69.90500,     -12.50529
731.088,69.95667,     -12.50643
731.606,70.00833,     -12.50768
732.121,70.06000,     -12.50872
732.638,70.11167,     -12.50987
733.155,70.16333,     -12.51101
733.669,70.21500,     -12.51236
734.189,70.26667,     -12.51390
734.705,70.31833,     -12.51575
735.22,70.37000,     -12.51689
735.741,70.42167,     -12.51793
736.26,70.47333,     -12.51848
736.775,70.52500,     -12.51942
737.29,70.57667,     -12.52017
737.805,70.62833,     -12.52141
738.319,70.68000,     -12.52326
738.833,70.73167,     -12.52580
739.348,70.78333,     -12.52815
739.865,70.83500,     -12.53099
740.381,70.88667,     -12.53253
740.895,70.93833,     -12.53298
741.416,70.99000,     -12.53342
741.934,71.04167,     -12.53356
742.449,71.09333,     -12.53400
742.965,71.14500,     -12.53445
743.482,71.19667,     -12.53519
743.999,71.24833,     -12.53643
744.516,71.30000,     -12.53807
745.034,71.35167,     -12.53972
745.552,71.40333,     -12.54106
746.068,71.45500,     -12.54150
746.583,71.50667,     -12.54224
747.098,71.55833,     -12.54318
747.615,71.61000,     -12.54382
748.129,71.66167,     -12.54447
748.643,71.71333,     -12.54521
749.161,71.76500,     -12.54685
749.677,71.81667,     -12.54869
750.193,71.86833,     -12.54963
750.71,71.92000,     -12.55067
751.23,71.97167,     -12.55171
751.746,72.02333,     -12.55225
752.262,72.07500,     -12.55309
752.783,72.12667,     -12.55393
753.301,72.17833,     -12.55487
753.819,72.23000,     -12.55621
754.337,72.28167,     -12.55795
754.854,72.33333,     -12.55969
755.367,72.38500,     -12.56173
755.879,72.43667,     -12.56537
756.398,72.48833,     -12.56791
756.916,72.54000,     -12.56825
757.431,72.59167,     -12.56849
757.95,72.64333,     -12.56912
758.464,72.69500,     -12.56976
758.983,72.74667,     -12.57050
759.501,72.79833,     -12.57114
760.012,72.85000,     -12.57168
760.533,72.90167,     -12.57251
761.048,72.95333,     -12.57285
761.56,73.00500,     -12.57319
762.077,73.05667,     -12.57363
762.591,73.10833,     -12.57447
763.109,73.16000,     -12.57560
763.623,73.21167,     -12.57664
764.138,73.26333,     -12.57748
764.655,73.31500,     -12.57851
765.173,73.36667,     -12.57905
765.692,73.41833,     -12.57938
766.209,73.47000,     -12.58031
766.727,73.52167,     -12.58165
767.244,73.57333,     -12.58319
767.756,73.62500,     -12.58532
768.272,73.67667,     -12.58766
768.786,73.72833,     -12.58880
769.303,73.78000,     -12.58913
769.819,73.83167,     -12.58956
770.335,73.88333,     -12.59070
770.854,73.93500,     -12.59213
771.372,73.98667,     -12.59466
771.888,74.03833,     -12.59589
772.407,74.09000,     -12.59652
772.923,74.14167,     -12.59706
773.439,74.19333,     -12.59739
773.955,74.24500,     -12.59763
774.47,74.29667,     -12.59806
774.986,74.34833,     -12.59919
775.502,74.40000,     -12.60032
776.019,74.45167,     -12.60165
776.536,74.50333,     -12.60288
777.051,74.55500,     -12.60412
777.57,74.60667,     -12.60484
778.088,74.65833,     -12.60577
778.603,74.71000,     -12.60661
779.123,74.76167,     -12.60734
779.639,74.81333,     -12.60836
780.155,74.86500,     -12.60920
780.673,74.91667,     -12.61043
781.19,74.96833,     -12.61195
781.71,75.02000,     -12.61358
782.224,75.07167,     -12.61451
782.744,75.12333,     -12.61494
783.259,75.17500,     -12.61527
783.779,75.22667,     -12.61579
784.296,75.27833,     -12.61642
784.811,75.33000,     -12.61715
785.325,75.38167,     -12.61828
785.836,75.43333,     -12.61941
786.353,75.48500,     -12.62074
786.873,75.53667,     -12.62226
787.39,75.58833,     -12.62368
787.907,75.64000,     -12.62491
788.423,75.69167,     -12.62574
788.941,75.74333,     -12.62656
789.458,75.79500,     -12.62749
789.97,75.84667,     -12.62801
790.489,75.89833,     -12.62824
791.003,75.95000,     -12.62866
791.523,76.00167,     -12.62898
792.038,76.05333,     -12.62981
792.553,76.10500,     -12.63133
793.071,76.15667,     -12.63316
793.586,76.20833,     -12.63568
794.103,76.26000,     -12.63710
794.615,76.31167,     -12.63783
795.134,76.36333,     -12.63825
795.648,76.41500,     -12.63887
796.17,76.46667,     -12.63929
796.684,76.51833,     -12.63961
797.2,76.57000,     -12.64053
797.72,76.62167,     -12.64155
798.241,76.67333,     -12.64217
798.761,76.72500,     -12.64319
799.282,76.77667,     -12.64410
799.5,76.79833,     -12.64443