File: data-raw/TGA/MM_TGA.csv
#EXPORTTYPE:                 ,DATA SINGLE
#FILE:                       ,MM.ngb-st9
#FORMAT:                     ,NETZSCH5
#FTYPE:                      ,ANSI
#IDENTITY:                   ,Saras
#DECIMAL:                    ,POINT
#SEPARATOR:                  ,COMMA
#MTYPE:                      ,TG
#INSTRUMENT:                 ,NETZSCH TG 209F1 Libra
#PROJECT:                    ,IL
#DATE/TIME:                  ,21/03/2017 10:11:39 AM (UTC+11)
#CORR. FILE:                 ,
#TEMPCAL:                    ,TCALZERO.TCX
#LABORATORY:                 ,Capture Lab
#OPERATOR:                   ,NJN
#REMARK:                     ,Training run
#SAMPLE:                     ,MM
#SAMPLE MASS /mg:            ,11.2769
#MATERIAL:                   ,zeolite
#TYPE OF CRUCIBLE:           ,Al2O3
#SAMPLE CRUCIBLE MASS /mg:   ,311.1645
#REFERENCE CRUCIBLE MASS /mg:,
#M.RANGE /mg:                ,2000
#CORR. CODE:                 ,090
#RANGE:                      ,32°C/10.0(K/min)/800°C
#SEGMENT:                    ,S1/1
#SEG. 1:                     ,32°C/10.0(K/min)/800°C

##Temp./°C,Time/min,Mass loss/mg
 31.76700, 0.00000,-2.278087e-003
 31.77100, 0.05167,-2.459402e-003
 31.82500, 0.10333,-2.797917e-003
 32.13700, 0.15500,-2.059149e-003
 32.52900, 0.20667,-3.806122e-005
 32.88800, 0.25833, 1.161908e-003
 33.25600, 0.31000, 1.132527e-003
 33.66600, 0.36167, 1.563034e-003
 34.12400, 0.41333, 1.832108e-003
 34.60700, 0.46500, 2.012306e-003
 35.11500, 0.51667, 2.628396e-003
 35.65100, 0.56833, 2.428556e-003
 36.21600, 0.62000, 2.064379e-003
 36.79800, 0.67167, 1.883896e-003
 37.40100, 0.72333, 1.874170e-003
 38.01700, 0.77500, 1.857548e-003
 38.64200, 0.82667, 1.791713e-003
 39.27600, 0.87833, 1.618454e-003
 39.91600, 0.93000, 1.413200e-003
 40.55500, 0.98167, 1.413503e-003
 41.20900, 1.03333, 1.246898e-003
 41.85200, 1.08500, 1.032316e-003
 42.49100, 1.13667, 6.962452e-004
 43.12300, 1.18833, 1.666549e-004
 43.75300, 1.24000,-3.233834e-004
 44.37200, 1.29167,-9.575832e-004
 44.98000, 1.34333,-1.753010e-003
 45.58200, 1.39500,-2.648187e-003
 46.17200, 1.44667,-3.500273e-003
 46.75300, 1.49833,-4.361424e-003
 47.32200, 1.55000,-5.318466e-003
 47.88600, 1.60167,-6.398662e-003
 48.43500, 1.65333,-7.333750e-003
 48.97900, 1.70500,-8.198749e-003
 49.50900, 1.75667,-9.050158e-003
 50.04200, 1.80833,-1.006447e-002
 50.56500, 1.86000,-1.127629e-002
 51.07700, 1.91167,-1.245952e-002
 51.58500, 1.96333,-1.357503e-002
 52.09300, 2.01500,-1.482733e-002
 52.59500, 2.06667,-1.617315e-002
 53.09500, 2.11833,-1.754216e-002
 53.59300, 2.17000,-1.892561e-002
 54.09200, 2.22167,-2.053081e-002
 54.58400, 2.27333,-2.200567e-002
 55.08500, 2.32500,-2.367113e-002
 55.57900, 2.37667,-2.516927e-002
 56.07400, 2.42833,-2.699763e-002
 56.57500, 2.48000,-2.927352e-002
 57.07200, 2.53167,-3.131262e-002
 57.57400, 2.58333,-3.377781e-002
 58.07700, 2.63500,-3.542817e-002
 58.58000, 2.68667,-3.708240e-002
 59.08200, 2.73833,-3.902186e-002
 59.58600, 2.79000,-4.117929e-002
 60.10200, 2.84167,-4.328912e-002
 60.61600, 2.89333,-4.475590e-002
 61.13000, 2.94500,-4.671881e-002
 61.64500, 2.99667,-4.875037e-002
 62.15700, 3.04833,-5.118705e-002
 62.67500, 3.10000,-5.354599e-002
 63.18900, 3.15167,-5.588172e-002
 63.70600, 3.20333,-5.833224e-002
 64.23000, 3.25500,-6.068657e-002
 64.74900, 3.30667,-6.350418e-002
 65.26900, 3.35833,-6.604210e-002
 65.78700, 3.41000,-6.854254e-002
 66.30600, 3.46167,-7.076565e-002
 66.82300, 3.51333,-7.348562e-002
 67.34900, 3.56500,-7.612222e-002
 67.86900, 3.61667,-7.873954e-002
 68.39100, 3.66833,-8.137387e-002
 68.91200, 3.72000,-8.437543e-002
 69.43300, 3.77167,-8.740223e-002
 69.95500, 3.82333,-9.030303e-002
 70.47500, 3.87500,-9.360069e-002
 70.99800, 3.92667,-9.642176e-002
 71.51500, 3.97833,-9.932156e-002
 72.03300, 4.03000,      -0.10263
 72.55500, 4.08167,      -0.10545
 73.07300, 4.13333,      -0.10843
 73.59600, 4.18500,      -0.11136
 74.11300, 4.23667,      -0.11435
 74.63000, 4.28833,      -0.11733
 75.15000, 4.34000,      -0.12072
 75.66300, 4.39167,      -0.12392
 76.18000, 4.44333,      -0.12714
 76.70300, 4.49500,      -0.13026
 77.22100, 4.54667,      -0.13295
 77.73300, 4.59833,      -0.13613
 78.25200, 4.65000,      -0.13893
 78.76800, 4.70167,      -0.14213
 79.28200, 4.75333,      -0.14492
 79.79500, 4.80500,      -0.14820
 80.31700, 4.85667,      -0.15113
 80.83300, 4.90833,      -0.15392
 81.34600, 4.96000,      -0.15692
 81.86400, 5.01167,      -0.15993
 82.38000, 5.06333,      -0.16332
 82.89600, 5.11500,      -0.16631
 83.41100, 5.16667,      -0.16921
 83.93100, 5.21833,      -0.17211
 84.44500, 5.27000,      -0.17541
 84.96300, 5.32167,      -0.17832
 85.48300, 5.37333,      -0.18113
 86.00000, 5.42500,      -0.18382
 86.51800, 5.47667,      -0.18661
 87.04000, 5.52833,      -0.18942
 87.55500, 5.58000,      -0.19211
 88.07000, 5.63167,      -0.19509
 88.59000, 5.68333,      -0.19769
 89.10800, 5.73500,      -0.20018
 89.62600, 5.78667,      -0.20288
 90.14300, 5.83833,      -0.20578
 90.66300, 5.89000,      -0.20867
 91.18000, 5.94167,      -0.21126
 91.69700, 5.99333,      -0.21376
 92.22000, 6.04500,      -0.21615
 92.73600, 6.09667,      -0.21875
 93.25700, 6.14833,      -0.22104
 93.77700, 6.20000,      -0.22374
 94.29600, 6.25167,      -0.22622
 94.81100, 6.30333,      -0.22850
 95.32900, 6.35500,      -0.23079
 95.84700, 6.40667,      -0.23279
 96.36300, 6.45833,      -0.23497
 96.88100, 6.51000,      -0.23706
 97.39500, 6.56167,      -0.23945
 97.91400, 6.61333,      -0.24164
 98.43400, 6.66500,      -0.24374
 98.95000, 6.71667,      -0.24593
 99.46500, 6.76833,      -0.24772
 99.98400, 6.82000,      -0.24991
100.504, 6.87167,      -0.25164
101.024, 6.92333,      -0.25376
101.538, 6.97500,      -0.25556
102.057, 7.02667,      -0.25677
102.572, 7.07833,      -0.25818
103.086, 7.13000,      -0.25997
103.604, 7.18167,      -0.26149
104.123, 7.23333,      -0.26300
104.636, 7.28500,      -0.26460
105.15, 7.33667,      -0.26600
105.669, 7.38833,      -0.26751
106.188, 7.44000,      -0.26882
106.706, 7.49167,      -0.27013
107.219, 7.54333,      -0.27131
107.736, 7.59500,      -0.27261
108.249, 7.64667,      -0.27400
108.766, 7.69833,      -0.27529
109.281, 7.75000,      -0.27669
109.795, 7.80167,      -0.27797
110.313, 7.85333,      -0.27927
110.831, 7.90500,      -0.28068
111.348, 7.95667,      -0.28206
111.859, 8.00833,      -0.28314
112.374, 8.06000,      -0.28421
112.892, 8.11167,      -0.28552
113.408, 8.16333,      -0.28671
113.924, 8.21500,      -0.28770
114.441, 8.26667,      -0.28868
114.957, 8.31833,      -0.28996
115.473, 8.37000,      -0.29134
115.989, 8.42167,      -0.29252
116.506, 8.47333,      -0.29360
117.023, 8.52500,      -0.29488
117.544, 8.57667,      -0.29627
118.058, 8.62833,      -0.29734
118.575, 8.68000,      -0.29852
119.091, 8.73167,      -0.29968
119.604, 8.78333,      -0.30074
120.12, 8.83500,      -0.30172
120.637, 8.88667,      -0.30289
121.158, 8.93833,      -0.30408
121.676, 8.99000,      -0.30524
122.19, 9.04167,      -0.30631
122.709, 9.09333,      -0.30717
123.221, 9.14500,      -0.30853
123.737, 9.19667,      -0.30949
124.252, 9.24833,      -0.31045
124.772, 9.30000,      -0.31153
125.291, 9.35167,      -0.31250
125.807, 9.40333,      -0.31346
126.324, 9.45500,      -0.31452
126.841, 9.50667,      -0.31548
127.358, 9.55833,      -0.31663
127.875, 9.61000,      -0.31739
128.387, 9.66167,      -0.31854
128.905, 9.71333,      -0.31961
129.424, 9.76500,      -0.32057
129.939, 9.81667,      -0.32161
130.457, 9.86833,      -0.32268
130.976, 9.92000,      -0.32363
131.491, 9.97167,      -0.32447
132.012,10.02333,      -0.32543
132.528,10.07500,      -0.32628
133.041,10.12667,      -0.32712
133.558,10.17833,      -0.32788
134.075,10.23000,      -0.32883
134.593,10.28167,      -0.32998
135.109,10.33333,      -0.33093
135.626,10.38500,      -0.33157
136.143,10.43667,      -0.33242
136.66,10.48833,      -0.33327
137.179,10.54000,      -0.33441
137.696,10.59167,      -0.33566
138.212,10.64333,      -0.33660
138.727,10.69500,      -0.33754
139.243,10.74667,      -0.33858
139.761,10.79833,      -0.33942
140.276,10.85000,      -0.34017
140.794,10.90167,      -0.34131
141.312,10.95333,      -0.34205
141.831,11.00500,      -0.34289
142.347,11.05667,      -0.34394
142.865,11.10833,      -0.34507
143.377,11.16000,      -0.34610
143.896,11.21167,      -0.34714
144.413,11.26333,      -0.34798
144.931,11.31500,      -0.34892
145.449,11.36667,      -0.34986
145.964,11.41833,      -0.35099
146.482,11.47000,      -0.35233
146.999,11.52167,      -0.35336
147.517,11.57333,      -0.35460
148.03,11.62500,      -0.35572
148.549,11.67667,      -0.35696
149.067,11.72833,      -0.35800
149.584,11.78000,      -0.35923
150.102,11.83167,      -0.36036
150.618,11.88333,      -0.36160
151.136,11.93500,      -0.36283
151.655,11.98667,      -0.36396
152.174,12.03833,      -0.36540
152.689,12.09000,      -0.36662
153.207,12.14167,      -0.36785
153.717,12.19333,      -0.36897
154.238,12.24500,      -0.37061
154.755,12.29667,      -0.37204
155.275,12.34833,      -0.37367
155.786,12.40000,      -0.37539
156.307,12.45167,      -0.37663
156.82,12.50333,      -0.37835
157.337,12.55500,      -0.37938
157.854,12.60667,      -0.38071
158.369,12.65833,      -0.38204
158.888,12.71000,      -0.38347
159.403,12.76167,      -0.38509
159.919,12.81333,      -0.38702
160.438,12.86500,      -0.38925
160.951,12.91667,      -0.39097
161.471,12.96833,      -0.39290
161.986,13.02000,      -0.39453
162.501,13.07167,      -0.39595
163.019,13.12333,      -0.39738
163.532,13.17500,      -0.39951
164.05,13.22667,      -0.40143
164.563,13.27833,      -0.40346
165.081,13.33000,      -0.40539
165.595,13.38167,      -0.40721
166.113,13.43333,      -0.40894
166.631,13.48500,      -0.41107
167.145,13.53667,      -0.41329
167.664,13.58833,      -0.41502
168.18,13.64000,      -0.41695
168.698,13.69167,      -0.41887
169.216,13.74333,      -0.42110
169.728,13.79500,      -0.42322
170.247,13.84667,      -0.42535
170.764,13.89833,      -0.42758
171.281,13.95000,      -0.42950
171.793,14.00167,      -0.43173
172.31,14.05333,      -0.43405
172.827,14.10500,      -0.43628
173.345,14.15667,      -0.43871
173.86,14.20833,      -0.44113
174.379,14.26000,      -0.44376
174.896,14.31167,      -0.44629
175.413,14.36333,      -0.44882
175.929,14.41500,      -0.45135
176.446,14.46667,      -0.45397
176.964,14.51833,      -0.45650
177.479,14.57000,      -0.45903
177.998,14.62167,      -0.46186
178.515,14.67333,      -0.46479
179.031,14.72500,      -0.46811
179.551,14.77667,      -0.47084
180.066,14.82833,      -0.47377
180.584,14.88000,      -0.47660
181.101,14.93167,      -0.47963
181.616,14.98333,      -0.48285
182.13,15.03500,      -0.48598
182.649,15.08667,      -0.48921
183.167,15.13833,      -0.49275
183.68,15.19000,      -0.49618
184.198,15.24167,      -0.49961
184.719,15.29333,      -0.50304
185.234,15.34500,      -0.50677
185.75,15.39667,      -0.51070
186.269,15.44833,      -0.51444
186.786,15.50000,      -0.51827
187.305,15.55167,      -0.52161
187.824,15.60333,      -0.52614
188.338,15.65500,      -0.53057
188.856,15.70667,      -0.53480
189.374,15.75833,      -0.53924
189.89,15.81000,      -0.54317
190.402,15.86167,      -0.54770
190.922,15.91333,      -0.55224
191.437,15.96500,      -0.55718
191.952,16.01667,      -0.56191
192.473,16.06833,      -0.56645
192.987,16.12000,      -0.57179
193.503,16.17167,      -0.57673
194.02,16.22333,      -0.58197
194.535,16.27500,      -0.58710
195.053,16.32667,      -0.59235
195.568,16.37833,      -0.59768
196.085,16.43000,      -0.60343
196.6,16.48167,      -0.60907
197.119,16.53333,      -0.61501
197.636,16.58500,      -0.62095
198.15,16.63667,      -0.62669
198.67,16.68833,      -0.63274
199.186,16.74000,      -0.63858
199.704,16.79167,      -0.64513
200.218,16.84333,      -0.65107
200.733,16.89500,      -0.65762
201.251,16.94667,      -0.66396
201.765,16.99833,      -0.67131
202.283,17.05000,      -0.67806
202.801,17.10167,      -0.68451
203.32,17.15333,      -0.69176
203.837,17.20500,      -0.69830
204.356,17.25667,      -0.70565
204.869,17.30833,      -0.71269
205.389,17.36000,      -0.72024
205.907,17.41167,      -0.72799
206.422,17.46333,      -0.73504
206.94,17.51500,      -0.74338
207.456,17.56667,      -0.75083
207.971,17.61833,      -0.75897
208.487,17.67000,      -0.76682
209.007,17.72167,      -0.77518
209.521,17.77333,      -0.78312
210.036,17.82500,      -0.79127
210.555,17.87667,      -0.80002
211.072,17.92833,      -0.80817
211.587,17.98000,      -0.81692
212.105,18.03167,      -0.82547
212.622,18.08333,      -0.83431
213.137,18.13500,      -0.84286
213.655,18.18667,      -0.85231
214.169,18.23833,      -0.86156
214.685,18.29000,      -0.87031
215.204,18.34167,      -0.87956
215.719,18.39333,      -0.88861
216.236,18.44500,      -0.89836
216.753,18.49667,      -0.90701
217.273,18.54833,      -0.91706
217.79,18.60000,      -0.92651
218.306,18.65167,      -0.93676
218.825,18.70333,      -0.94571
219.342,18.75500,      -0.95606
219.858,18.80667,      -0.96631
220.372,18.85833,      -0.97566
220.89,18.91000,      -0.98601
221.407,18.96167,      -0.99586
221.923,19.01333,      -1.00631
222.44,19.06500,      -1.01606
222.956,19.11667,      -1.02651
223.471,19.16833,      -1.03676
223.989,19.22000,      -1.04721
224.502,19.27167,      -1.05786
225.022,19.32333,      -1.06832
225.539,19.37500,      -1.07907
226.053,19.42667,      -1.08922
226.572,19.47833,      -1.09997
227.087,19.53000,      -1.11012
227.603,19.58167,      -1.12137
228.118,19.63333,      -1.13152
228.639,19.68500,      -1.14288
229.154,19.73667,      -1.15423
229.669,19.78833,      -1.16518
230.187,19.84000,      -1.17673
230.706,19.89167,      -1.18748
231.217,19.94333,      -1.19943
231.738,19.99500,      -1.21049
232.254,20.04667,      -1.22284
232.768,20.09833,      -1.23399
233.285,20.15000,      -1.24624
233.799,20.20167,      -1.25849
234.317,20.25333,      -1.26994
234.835,20.30500,      -1.28240
235.353,20.35667,      -1.29435
235.869,20.40833,      -1.30750
236.385,20.46000,      -1.31965
236.902,20.51167,      -1.33300
237.417,20.56333,      -1.34566
237.935,20.61500,      -1.35901
238.451,20.66667,      -1.37796
238.97,20.71833,      -1.39641
239.484,20.77000,      -1.40726
240.001,20.82167,      -1.41822
240.519,20.87333,      -1.43087
241.037,20.92500,      -1.45402
241.553,20.97667,      -1.46447
242.069,21.02833,      -1.47663
242.585,21.08000,      -1.48858
243.1,21.13167,      -1.51263
243.615,21.18333,      -1.52248
244.128,21.23500,      -1.53503
244.649,21.28667,      -1.56029
245.164,21.33833,      -1.57084
245.683,21.39000,      -1.58229
246.197,21.44167,      -1.59584
246.714,21.49333,      -1.62009
247.231,21.54500,      -1.63165
247.749,21.59667,      -1.65450
248.264,21.64833,      -1.66515
248.781,21.70000,      -1.67840
249.296,21.75167,      -1.70426
249.809,21.80333,      -1.72201
250.328,21.85500,      -1.73336
250.844,21.90667,      -1.74831
251.361,21.95833,      -1.77166
251.879,22.01000,      -1.78902
252.394,22.06167,      -1.80707
252.909,22.11333,      -1.82442
253.426,22.16500,      -1.84207
253.944,22.21667,      -1.85882
254.46,22.26833,      -1.87778
254.976,22.32000,      -1.89523
255.49,22.37167,      -1.91388
256.006,22.42333,      -1.93183
256.526,22.47500,      -1.95038
257.041,22.52667,      -1.96953
257.557,22.57833,      -1.98758
258.073,22.63000,      -2.00694
258.589,22.68167,      -2.02589
259.103,22.73333,      -2.04514
259.624,22.78500,      -2.06379
260.141,22.83667,      -2.08354
260.657,22.88833,      -2.10279
261.171,22.94000,      -2.12334
261.69,22.99167,      -2.14379
262.205,23.04333,      -2.16324
262.719,23.09500,      -2.18400
263.237,23.14667,      -2.20405
263.754,23.19833,      -2.22490
264.27,23.25000,      -2.24455
264.787,23.30167,      -2.26610
265.303,23.35333,      -2.28655
265.82,23.40500,      -2.30820
266.336,23.45667,      -2.32985
266.853,23.50833,      -2.35060
267.371,23.56000,      -2.37215
267.888,23.61167,      -2.39280
268.403,23.66333,      -2.41505
268.919,23.71500,      -2.43590
269.435,23.76667,      -2.45855
269.951,23.81833,      -2.48060
270.469,23.87000,      -2.50325
270.983,23.92167,      -2.52620
271.501,23.97333,      -2.54785
272.017,24.02500,      -2.57119
272.535,24.07667,      -2.59334
273.05,24.12833,      -2.61709
273.564,24.18000,      -2.63914
274.083,24.23167,      -2.66349
274.602,24.28333,      -2.68564
275.117,24.33500,      -2.70989
275.634,24.38667,      -2.73434
276.149,24.43833,      -2.75718
276.667,24.49000,      -2.78193
277.184,24.54167,      -2.80508
277.702,24.59333,      -2.82973
278.217,24.64500,      -2.85317
278.733,24.69667,      -2.87842
279.245,24.74833,      -2.90197
279.762,24.80000,      -2.92712
280.284,24.85167,      -2.95256
280.802,24.90333,      -2.97621
281.32,24.95500,      -3.00176
281.862,25.00667,      -3.02590
282.379,25.05833,      -3.05115
282.893,25.11000,      -3.07549
283.403,25.16167,      -3.10154
283.916,25.21333,      -3.12559
284.429,25.26500,      -3.15183
284.94,25.31667,      -3.17758
285.453,25.36833,      -3.20243
285.969,25.42000,      -3.22867
286.485,25.47167,      -3.25382
286.998,25.52333,      -3.27966
287.514,25.57500,      -3.30471
288.031,25.62667,      -3.33175
288.548,25.67833,      -3.35640
289.067,25.73000,      -3.38284
289.581,25.78167,      -3.40938
290.098,25.83333,      -3.43473
290.616,25.88500,      -3.46167
291.131,25.93667,      -3.48712
291.645,25.98833,      -3.51416
292.163,26.04000,      -3.53950
292.677,26.09167,      -3.56605
293.194,26.14333,      -3.59159
293.709,26.19500,      -3.61813
294.227,26.24667,      -3.64527
294.745,26.29833,      -3.67102
295.258,26.35000,      -3.69836
295.776,26.40167,      -3.72410
296.292,26.45333,      -3.75154
296.808,26.50500,      -3.77708
297.326,26.55667,      -3.80442
297.841,26.60833,      -3.83056
298.358,26.66000,      -3.85881
298.875,26.71167,      -3.88625
299.391,26.76333,      -3.91229
299.906,26.81500,      -3.94063
300.424,26.86667,      -3.96687
300.944,26.91833,      -3.99481
301.463,26.97000,      -4.02125
301.977,27.02167,      -4.04949
302.496,27.07333,      -4.07653
303.012,27.12500,      -4.10587
303.525,27.17667,      -4.13441
304.041,27.22833,      -4.16135
304.557,27.28000,      -4.19069
305.073,27.33167,      -4.21853
305.591,27.38333,      -4.24767
306.108,27.43500,      -4.27491
306.624,27.48667,      -4.30465
307.141,27.53833,      -4.33229
307.659,27.59000,      -4.36233
308.174,27.64167,      -4.39227
308.691,27.69333,      -4.42081
309.207,27.74500,      -4.45155
309.723,27.79667,      -4.47969
310.238,27.84833,      -4.51073
310.758,27.90000,      -4.53897
311.278,27.95167,      -4.56911
311.795,28.00333,      -4.59825
312.307,28.05500,      -4.62919
312.823,28.10667,      -4.65923
313.341,28.15833,      -4.68777
313.859,28.21000,      -4.71851
314.374,28.26167,      -4.74715
314.89,28.31333,      -4.77689
315.405,28.36500,      -4.80483
315.925,28.41667,      -4.83407
316.44,28.46833,      -4.86201
316.956,28.52000,      -4.89095
317.47,28.57167,      -4.92009
317.985,28.62333,      -4.94683
318.515,28.67500,      -4.97517
319.034,28.72667,      -5.00151
319.549,28.77833,      -5.02835
320.06,28.83000,      -5.05399
320.575,28.88167,      -5.08083
321.087,28.93333,      -5.10527
321.603,28.98500,      -5.13041
322.12,29.03667,      -5.15535
322.633,29.08833,      -5.17859
323.15,29.14000,      -5.20253
323.665,29.19167,      -5.22437
324.181,29.24333,      -5.24711
324.695,29.29500,      -5.26875
325.211,29.34667,      -5.29079
325.727,29.39833,      -5.31083
326.241,29.45000,      -5.33267
326.76,29.50167,      -5.35131
327.275,29.55333,      -5.37125
327.789,29.60500,      -5.39059
328.305,29.65667,      -5.40803
328.821,29.70833,      -5.42687
329.338,29.76000,      -5.44331
329.856,29.81167,      -5.45694
330.373,29.86333,      -5.46838
330.888,29.91500,      -5.49362
331.405,29.96667,      -5.50406
331.925,30.01833,      -5.51520
332.443,30.07000,      -5.52814
332.964,30.12167,      -5.55107
333.481,30.17333,      -5.56181
333.999,30.22500,      -5.57285
334.516,30.27667,      -5.58489
335.031,30.32833,      -5.59733
335.544,30.38000,      -5.62007
336.062,30.43167,      -5.62951
336.575,30.48333,      -5.63955
337.094,30.53500,      -5.65049
337.607,30.58667,      -5.66173
338.123,30.63833,      -5.67346
338.637,30.69000,      -5.68490
339.155,30.74167,      -5.69674
339.668,30.79333,      -5.70768
340.183,30.84500,      -5.71942
340.7,30.89667,      -5.73045
341.215,30.94833,      -5.74079
341.735,31.00000,      -5.75123
342.25,31.05167,      -5.76147
342.767,31.10333,      -5.77220
343.283,31.15500,      -5.78184
343.799,31.20667,      -5.79228
344.316,31.25833,      -5.80152
344.829,31.31000,      -5.81165
345.35,31.36167,      -5.82139
345.866,31.41333,      -5.83043
346.383,31.46500,      -5.84046
346.899,31.51667,      -5.84910
347.415,31.56833,      -5.85834
347.931,31.62000,      -5.86708
348.448,31.67167,      -5.87611
348.964,31.72333,      -5.88445
349.482,31.77500,      -5.89338
349.999,31.82667,      -5.90232
350.515,31.87833,      -5.91036
351.031,31.93000,      -5.91879
351.547,31.98167,      -5.92663
352.065,32.03333,      -5.93506
352.583,32.08500,      -5.94320
353.1,32.13667,      -5.95154
353.616,32.18833,      -5.95927
354.132,32.24000,      -5.96731
354.647,32.29167,      -5.97524
355.162,32.34333,      -5.98258
355.678,32.39500,      -5.99031
356.194,32.44667,      -5.99775
356.711,32.49833,      -6.00568
357.229,32.55000,      -6.01282
357.747,32.60167,      -6.02035
358.264,32.65333,      -6.02699
358.779,32.70500,      -6.03472
359.296,32.75667,      -6.04186
359.814,32.80833,      -6.04769
360.33,32.86000,      -6.05562
360.844,32.91167,      -6.06336
361.361,32.96333,      -6.07089
361.877,33.01500,      -6.07773
362.394,33.06667,      -6.08466
362.911,33.11833,      -6.09109
363.428,33.17000,      -6.09783
363.946,33.22167,      -6.10476
364.461,33.27333,      -6.11119
364.978,33.32500,      -6.11852
365.492,33.37667,      -6.12486
366.009,33.42833,      -6.13129
366.525,33.48000,      -6.13762
367.041,33.53167,      -6.14426
367.558,33.58333,      -6.15079
368.078,33.63500,      -6.15752
368.594,33.68667,      -6.16405
369.109,33.73833,      -6.17038
369.627,33.79000,      -6.17681
370.142,33.84167,      -6.18295
370.658,33.89333,      -6.18938
371.174,33.94500,      -6.19521
371.692,33.99667,      -6.20194
372.206,34.04833,      -6.20857
372.722,34.10000,      -6.21480
373.24,34.15167,      -6.22133
373.757,34.20333,      -6.22766
374.27,34.25500,      -6.23339
374.787,34.30667,      -6.23912
375.302,34.35833,      -6.24545
375.818,34.41000,      -6.25138
376.335,34.46167,      -6.25761
376.851,34.51333,      -6.26344
377.364,34.56500,      -6.26947
377.882,34.61667,      -6.27570
378.398,34.66833,      -6.28163
378.914,34.72000,      -6.28766
379.429,34.77167,      -6.29359
379.947,34.82333,      -6.29961
380.462,34.87500,      -6.30554
380.978,34.92667,      -6.31177
381.496,34.97833,      -6.31780
382.012,35.03000,      -6.32363
382.528,35.08167,      -6.32945
383.046,35.13333,      -6.33458
383.56,35.18500,      -6.34011
384.077,35.23667,      -6.34594
384.59,35.28833,      -6.35216
385.107,35.34000,      -6.35769
385.623,35.39167,      -6.36372
386.14,35.44333,      -6.36924
386.658,35.49500,      -6.37537
387.176,35.54667,      -6.38099
387.7,35.59833,      -6.38651
388.223,35.65000,      -6.39243
388.737,35.70167,      -6.39776
389.256,35.75333,      -6.40349
389.773,35.80500,      -6.40861
390.289,35.85667,      -6.41434
390.805,35.90833,      -6.41976
391.318,35.96000,      -6.42549
391.828,36.01167,      -6.43142
392.34,36.06333,      -6.43675
392.855,36.11500,      -6.44217
393.37,36.16667,      -6.44749
393.887,36.21833,      -6.45291
394.403,36.27000,      -6.45873
394.92,36.32167,      -6.46476
395.437,36.37333,      -6.46968
395.956,36.42500,      -6.47510
396.473,36.47667,      -6.48092
396.989,36.52833,      -6.48594
397.505,36.58000,      -6.49127
398.018,36.63167,      -6.49649
398.534,36.68333,      -6.50221
399.051,36.73500,      -6.50733
399.566,36.78667,      -6.51265
400.082,36.83833,      -6.51747
400.597,36.89000,      -6.52299
401.113,36.94167,      -6.52831
401.629,36.99333,      -6.53313
402.145,37.04500,      -6.53825
402.662,37.09667,      -6.54317
403.178,37.14833,      -6.54889
403.694,37.20000,      -6.55401
404.212,37.25167,      -6.55893
404.728,37.30333,      -6.56395
405.246,37.35500,      -6.56927
405.764,37.40667,      -6.57459
406.277,37.45833,      -6.57951
406.798,37.51000,      -6.58462
407.314,37.56167,      -6.58944
407.831,37.61333,      -6.59446
408.346,37.66500,      -6.59958
408.861,37.71667,      -6.60480
409.38,37.76833,      -6.60962
409.893,37.82000,      -6.61494
410.412,37.87167,      -6.61995
410.926,37.92333,      -6.62487
411.443,37.97500,      -6.63019
411.963,38.02667,      -6.63531
412.479,38.07833,      -6.64012
412.997,38.13000,      -6.64504
413.512,38.18167,      -6.64986
414.029,38.23333,      -6.65438
414.545,38.28500,      -6.65919
415.06,38.33667,      -6.66421
415.577,38.38833,      -6.66903
416.091,38.44000,      -6.67405
416.607,38.49167,      -6.67856
417.123,38.54333,      -6.68368
417.637,38.59500,      -6.68820
418.152,38.64667,      -6.69331
418.67,38.69833,      -6.69803
419.185,38.75000,      -6.70234
419.703,38.80167,      -6.70706
420.22,38.85333,      -6.71167
420.736,38.90500,      -6.71629
421.253,38.95667,      -6.72100
421.77,39.00833,      -6.72562
422.286,39.06000,      -6.73003
422.803,39.11167,      -6.73385
423.319,39.16333,      -6.73936
423.834,39.21500,      -6.74438
424.353,39.26667,      -6.74879
424.866,39.31833,      -6.75341
425.385,39.37000,      -6.75802
425.899,39.42167,      -6.76244
426.414,39.47333,      -6.76735
426.929,39.52500,      -6.77087
427.444,39.57667,      -6.77598
427.96,39.62833,      -6.78120
428.477,39.68000,      -6.78541
428.993,39.73167,      -6.78972
429.511,39.78333,      -6.79413
430.028,39.83500,      -6.79834
430.545,39.88667,      -6.80126
431.06,39.93833,      -6.80637
431.576,39.99000,      -6.81189
432.092,40.04167,      -6.81630
432.61,40.09333,      -6.82081
433.123,40.14500,      -6.82512
433.641,40.19667,      -6.82914
434.16,40.24833,      -6.83305
434.675,40.30000,      -6.83756
435.194,40.35167,      -6.84187
435.709,40.40333,      -6.84618
436.225,40.45500,      -6.85050
436.744,40.50667,      -6.85491
437.259,40.55833,      -6.85892
437.773,40.61000,      -6.86333
438.29,40.66167,      -6.86734
438.803,40.71333,      -6.87176
439.323,40.76500,      -6.87566
439.836,40.81667,      -6.87988
440.354,40.86833,      -6.88399
440.868,40.92000,      -6.88790
441.385,40.97167,      -6.89211
441.903,41.02333,      -6.89652
442.418,41.07500,      -6.90053
442.935,41.12667,      -6.90464
443.453,41.17833,      -6.90775
443.968,41.23000,      -6.91246
444.484,41.28167,      -6.91687
444.996,41.33333,      -6.92118
445.515,41.38500,      -6.92539
446.033,41.43667,      -6.92940
446.55,41.48833,      -6.93341
447.066,41.54000,      -6.93692
447.583,41.59167,      -6.94072
448.097,41.64333,      -6.94464
448.612,41.69500,      -6.94864
449.129,41.74667,      -6.95255
449.646,41.79833,      -6.95646
450.159,41.85000,      -6.96077
450.673,41.90167,      -6.96468
451.189,41.95333,      -6.96869
451.705,42.00500,      -6.97260
452.225,42.05667,      -6.97630
452.741,42.10833,      -6.97991
453.255,42.16000,      -6.98412
453.773,42.21167,      -6.98763
454.29,42.26333,      -6.99183
454.805,42.31500,      -6.99544
455.324,42.36667,      -6.99965
455.837,42.41833,      -7.00366
456.355,42.47000,      -7.00726
456.869,42.52167,      -7.01097
457.391,42.57333,      -7.01458
457.903,42.62500,      -7.01839
458.423,42.67667,      -7.02209
458.94,42.72833,      -7.02599
459.457,42.78000,      -7.02960
459.972,42.83167,      -7.03311
460.485,42.88333,      -7.03702
461.003,42.93500,      -7.04012
461.521,42.98667,      -7.04383
462.036,43.03833,      -7.04763
462.548,43.09000,      -7.05154
463.063,43.14167,      -7.05495
463.581,43.19333,      -7.05835
464.1,43.24500,      -7.06175
464.616,43.29667,      -7.06546
465.13,43.34833,      -7.06907
465.647,43.40000,      -7.07257
466.162,43.45167,      -7.07628
466.683,43.50333,      -7.07958
467.197,43.55500,      -7.08328
467.716,43.60667,      -7.08658
468.234,43.65833,      -7.09009
468.75,43.71000,      -7.09319
469.268,43.76167,      -7.09660
469.783,43.81333,      -7.10010
470.3,43.86500,      -7.10360
470.818,43.91667,      -7.10741
471.335,43.96833,      -7.11031
471.85,44.02000,      -7.11362
472.367,44.07167,      -7.11652
472.88,44.12333,      -7.11973
473.393,44.17500,      -7.12283
473.912,44.22667,      -7.12603
474.428,44.27833,      -7.12933
474.944,44.33000,      -7.13224
475.461,44.38167,      -7.13514
475.977,44.43333,      -7.13854
476.493,44.48500,      -7.14174
477.014,44.53667,      -7.14474
477.527,44.58833,      -7.14755
478.041,44.64000,      -7.15025
478.554,44.69167,      -7.15296
479.07,44.74333,      -7.15586
479.584,44.79500,      -7.15866
480.101,44.84667,      -7.16166
480.616,44.89833,      -7.16446
481.134,44.95000,      -7.16706
481.648,45.00167,      -7.16986
482.166,45.05333,      -7.17276
482.682,45.10500,      -7.17536
483.2,45.15667,      -7.17776
483.718,45.20833,      -7.18046
484.236,45.26000,      -7.18296
484.751,45.31167,      -7.18566
485.27,45.36333,      -7.18806
485.786,45.41500,      -7.19056
486.3,45.46667,      -7.19286
486.818,45.51833,      -7.19546
487.335,45.57000,      -7.19776
487.853,45.62167,      -7.20016
488.368,45.67333,      -7.20296
488.884,45.72500,      -7.20556
489.402,45.77667,      -7.20686
489.918,45.82833,      -7.20766
490.434,45.88000,      -7.20986
490.948,45.93167,      -7.21396
491.46,45.98333,      -7.21736
491.971,46.03500,      -7.21996
492.492,46.08667,      -7.22226
493.009,46.13833,      -7.22455
493.523,46.19000,      -7.22675
494.039,46.24167,      -7.22895
494.559,46.29333,      -7.23104
495.074,46.34500,      -7.23334
495.595,46.39667,      -7.23574
496.114,46.44833,      -7.23804
496.626,46.50000,      -7.24004
497.142,46.55167,      -7.24234
497.656,46.60333,      -7.24464
498.17,46.65500,      -7.24703
498.688,46.70667,      -7.24923
499.205,46.75833,      -7.25112
499.721,46.81000,      -7.25332
500.239,46.86167,      -7.25531
500.759,46.91333,      -7.25761
501.276,46.96500,      -7.25961
501.794,47.01667,      -7.26190
502.307,47.06833,      -7.26400
502.821,47.12000,      -7.26620
503.335,47.17167,      -7.26850
503.851,47.22333,      -7.27020
504.368,47.27500,      -7.27209
504.883,47.32667,      -7.27419
505.401,47.37833,      -7.27628
505.919,47.43000,      -7.27808
506.435,47.48167,      -7.28037
506.949,47.53333,      -7.28257
507.465,47.58500,      -7.28467
507.98,47.63667,      -7.28686
508.495,47.68833,      -7.28906
509.012,47.74000,      -7.29145
509.527,47.79167,      -7.29355
510.043,47.84333,      -7.29534
510.559,47.89500,      -7.29674
511.075,47.94667,      -7.29823
511.592,47.99833,      -7.29963
512.11,48.05000,      -7.30122
512.625,48.10167,      -7.30322
513.142,48.15333,      -7.30561
513.662,48.20500,      -7.30800
514.175,48.25667,      -7.31000
514.694,48.30833,      -7.31169
515.208,48.36000,      -7.31289
515.725,48.41167,      -7.31428
516.239,48.46333,      -7.31608
516.758,48.51500,      -7.31797
517.272,48.56667,      -7.32067
517.789,48.61833,      -7.32266
518.307,48.67000,      -7.32505
518.822,48.72167,      -7.32665
519.338,48.77333,      -7.32894
519.855,48.82500,      -7.33073
520.37,48.87667,      -7.33233
520.885,48.92833,      -7.33402
521.399,48.98000,      -7.33592
521.916,49.03167,      -7.33821
522.432,49.08333,      -7.34010
522.95,49.13500,      -7.34169
523.466,49.18667,      -7.34239
523.98,49.23833,      -7.34498
524.501,49.29000,      -7.34697
525.016,49.34167,      -7.34916
525.534,49.39333,      -7.35056
526.051,49.44500,      -7.35195
526.566,49.49667,      -7.35394
527.083,49.54833,      -7.35593
527.598,49.60000,      -7.35753
528.12,49.65167,      -7.35901
528.633,49.70333,      -7.36111
529.156,49.75500,      -7.36330
529.672,49.80667,      -7.36559
530.191,49.85833,      -7.36678
530.708,49.91000,      -7.36837
531.221,49.96167,      -7.36987
531.735,50.01333,      -7.37116
532.25,50.06500,      -7.37265
532.766,50.11667,      -7.37415
533.281,50.16833,      -7.37594
533.797,50.22000,      -7.37793
534.312,50.27167,      -7.38012
534.828,50.32333,      -7.38231
535.348,50.37500,      -7.38410
535.861,50.42667,      -7.38579
536.38,50.47833,      -7.38698
536.897,50.53000,      -7.38867
537.416,50.58167,      -7.38995
537.931,50.63333,      -7.39115
538.447,50.68500,      -7.39244
538.967,50.73667,      -7.39392
539.481,50.78833,      -7.39601
539.997,50.84000,      -7.39801
540.511,50.89167,      -7.40010
541.027,50.94333,      -7.40219
541.543,50.99500,      -7.40377
542.061,51.04667,      -7.40506
542.58,51.09833,      -7.40645
543.096,51.15000,      -7.40754
543.617,51.20167,      -7.40892
544.129,51.25333,      -7.41032
544.645,51.30500,      -7.41200
545.164,51.35667,      -7.41429
545.68,51.40833,      -7.41638
546.198,51.46000,      -7.41827
546.713,51.51167,      -7.41926
547.229,51.56333,      -7.42044
547.745,51.61500,      -7.42173
548.259,51.66667,      -7.42312
548.772,51.71833,      -7.42471
549.289,51.77000,      -7.42650
549.807,51.82167,      -7.42808
550.321,51.87333,      -7.42967
550.839,51.92500,      -7.43086
551.358,51.97667,      -7.43214
551.879,52.02833,      -7.43342
552.392,52.08000,      -7.43481
552.908,52.13167,      -7.43670
553.425,52.18333,      -7.43849
553.941,52.23500,      -7.43997
554.46,52.28667,      -7.44186
554.976,52.33833,      -7.44334
555.493,52.39000,      -7.44503
556.011,52.44167,      -7.44611
556.528,52.49333,      -7.44730
557.049,52.54500,      -7.44868
557.566,52.59667,      -7.44987
558.084,52.64833,      -7.45125
558.601,52.70000,      -7.45294
559.114,52.75167,      -7.45492
559.631,52.80333,      -7.45711
560.15,52.85500,      -7.45849
560.666,52.90667,      -7.45958
561.184,52.95833,      -7.46086
561.7,53.01000,      -7.46194
562.217,53.06167,      -7.46363
562.736,53.11333,      -7.46511
563.25,53.16500,      -7.46630
563.768,53.21667,      -7.46768
564.285,53.26833,      -7.46906
564.8,53.32000,      -7.47055
565.317,53.37167,      -7.47193
565.833,53.42333,      -7.47401
566.353,53.47500,      -7.47609
566.868,53.52667,      -7.47808
567.385,53.57833,      -7.47946
567.9,53.63000,      -7.48074
568.419,53.68167,      -7.48172
568.932,53.73333,      -7.48271
569.448,53.78500,      -7.48409
569.971,53.83667,      -7.48546
570.482,53.88833,      -7.48685
570.998,53.94000,      -7.48833
571.516,53.99167,      -7.49041
572.032,54.04333,      -7.49259
572.552,54.09500,      -7.49477
573.072,54.14667,      -7.49605
573.593,54.19833,      -7.49693
574.109,54.25000,      -7.49751
574.626,54.30167,      -7.49839
575.142,54.35333,      -7.49977
575.658,54.40500,      -7.50125
576.171,54.45667,      -7.50254
576.686,54.50833,      -7.50391
577.201,54.56000,      -7.50560
577.715,54.61167,      -7.50698
578.233,54.66333,      -7.50815
578.751,54.71500,      -7.50943
579.265,54.76667,      -7.51031
579.781,54.81833,      -7.51169
580.295,54.87000,      -7.51297
580.813,54.92167,      -7.51435
581.328,54.97333,      -7.51582
581.843,55.02500,      -7.51730
582.36,55.07667,      -7.51918
582.876,55.12833,      -7.52096
583.391,55.18000,      -7.52274
583.906,55.23167,      -7.52381
584.421,55.28333,      -7.52539
584.939,55.33500,      -7.52657
585.455,55.38667,      -7.52794
585.974,55.43833,      -7.52932
586.49,55.49000,      -7.53050
587.004,55.54167,      -7.53197
587.52,55.59333,      -7.53295
588.037,55.64500,      -7.53462
588.554,55.69667,      -7.53620
589.073,55.74833,      -7.53737
589.593,55.80000,      -7.53884
590.11,55.85167,      -7.54082
590.628,55.90333,      -7.54289
591.146,55.95500,      -7.54427
591.663,56.00667,      -7.54564
592.177,56.05833,      -7.54672
592.691,56.11000,      -7.54770
593.207,56.16167,      -7.54887
593.722,56.21333,      -7.55014
594.24,56.26500,      -7.55152
594.758,56.31667,      -7.55299
595.276,56.36833,      -7.55456
595.796,56.42000,      -7.55593
596.311,56.47167,      -7.55761
596.83,56.52333,      -7.55908
597.344,56.57500,      -7.56035
597.86,56.62667,      -7.56173
598.376,56.67833,      -7.56330
598.889,56.73000,      -7.56508
599.407,56.78167,      -7.56674
599.92,56.83333,      -7.56842
600.436,56.88500,      -7.57019
600.958,56.93667,      -7.57215
601.476,56.98833,      -7.57372
601.991,57.04000,      -7.57490
602.511,57.09167,      -7.57627
603.026,57.14333,      -7.57764
603.543,57.19500,      -7.57921
604.057,57.24667,      -7.58038
604.576,57.29833,      -7.58195
605.092,57.35000,      -7.58342
605.608,57.40167,      -7.58549
606.126,57.45333,      -7.58756
606.642,57.50500,      -7.58893
607.159,57.55667,      -7.59050
607.674,57.60833,      -7.59217
608.189,57.66000,      -7.59374
608.708,57.71167,      -7.59540
609.221,57.76333,      -7.59737
609.74,57.81500,      -7.59874
610.254,57.86667,      -7.59981
610.775,57.91833,      -7.60137
611.292,57.97000,      -7.60224
611.808,58.02167,      -7.60321
612.321,58.07333,      -7.60568
612.839,58.12500,      -7.60795
613.353,58.17667,      -7.60992
613.868,58.22833,      -7.61138
614.386,58.28000,      -7.61255
614.902,58.33167,      -7.61391
615.422,58.38333,      -7.61528
615.936,58.43500,      -7.61675
616.449,58.48667,      -7.61842
616.964,58.53833,      -7.62028
617.48,58.59000,      -7.62195
617.997,58.64167,      -7.62331
618.515,58.69333,      -7.62468
619.031,58.74500,      -7.62574
619.552,58.79667,      -7.62720
620.07,58.84833,      -7.62867
620.584,58.90000,      -7.63003
621.102,58.95167,      -7.63150
621.62,59.00333,      -7.63316
622.137,59.05500,      -7.63453
622.65,59.10667,      -7.63599
623.166,59.15833,      -7.63746
623.68,59.21000,      -7.63912
624.2,59.26167,      -7.64148
624.713,59.31333,      -7.64355
625.233,59.36500,      -7.64531
625.745,59.41667,      -7.64668
626.264,59.46833,      -7.64764
626.78,59.52000,      -7.64890
627.298,59.57167,      -7.65036
627.812,59.62333,      -7.65223
628.328,59.67500,      -7.65399
628.844,59.72667,      -7.65645
629.36,59.77833,      -7.65812
629.878,59.83000,      -7.65948
630.395,59.88167,      -7.66044
630.911,59.93333,      -7.66160
631.428,59.98500,      -7.66266
631.945,60.03667,      -7.66392
632.464,60.08833,      -7.66538
632.981,60.14000,      -7.66664
633.498,60.19167,      -7.66800
634.009,60.24333,      -7.66947
634.526,60.29500,      -7.67113
635.044,60.34667,      -7.67279
635.556,60.39833,      -7.67465
636.071,60.45000,      -7.67602
636.586,60.50167,      -7.67717
637.097,60.55333,      -7.67854
637.611,60.60500,      -7.67980
638.128,60.65667,      -7.68116
638.645,60.70833,      -7.68211
639.164,60.76000,      -7.68357
639.681,60.81167,      -7.68503
640.2,60.86333,      -7.68659
640.714,60.91500,      -7.68795
641.232,60.96667,      -7.68891
641.748,61.01833,      -7.69027
642.264,61.07000,      -7.69123
642.777,61.12167,      -7.69239
643.297,61.17333,      -7.69354
643.811,61.22500,      -7.69440
644.329,61.27667,      -7.69516
644.846,61.32833,      -7.69632
645.365,61.38000,      -7.69737
645.88,61.43167,      -7.69863
646.396,61.48333,      -7.69959
646.914,61.53500,      -7.70055
647.429,61.58667,      -7.70141
647.945,61.63833,      -7.70226
648.463,61.69000,      -7.70342
648.976,61.74167,      -7.70428
649.495,61.79333,      -7.70553
650.012,61.84500,      -7.70649
650.529,61.89667,      -7.70745
651.047,61.94833,      -7.70840
651.563,62.00000,      -7.70926
652.078,62.05167,      -7.71002
652.592,62.10333,      -7.71048
653.108,62.15500,      -7.71113
653.623,62.20667,      -7.71209
654.139,62.25833,      -7.71324
654.657,62.31000,      -7.71420
655.175,62.36167,      -7.71525
655.692,62.41333,      -7.71651
656.206,62.46500,      -7.71736
656.726,62.51667,      -7.71812
657.236,62.56833,      -7.71918
657.753,62.62000,      -7.72023
658.27,62.67167,      -7.72089
658.786,62.72333,      -7.72164
659.301,62.77500,      -7.72240
659.819,62.82667,      -7.72335
660.338,62.87833,      -7.72450
660.854,62.93000,      -7.72556
661.373,62.98167,      -7.72631
661.887,63.03333,      -7.72687
662.403,63.08500,      -7.72742
662.919,63.13667,      -7.72808
663.437,63.18833,      -7.72883
663.955,63.24000,      -7.72958
664.472,63.29167,      -7.73033
664.985,63.34333,      -7.73129
665.505,63.39500,      -7.73224
666.021,63.44667,      -7.73340
666.536,63.49833,      -7.73425
667.051,63.55000,      -7.73530
667.569,63.60167,      -7.73605
668.088,63.65333,      -7.73660
668.606,63.70500,      -7.73746
669.123,63.75667,      -7.73831
669.638,63.80833,      -7.73897
670.157,63.86000,      -7.73972
670.671,63.91167,      -7.74067
671.185,63.96333,      -7.74173
671.701,64.01500,      -7.74278
672.218,64.06667,      -7.74363
672.733,64.11833,      -7.74458
673.254,64.17000,      -7.74553
673.773,64.22167,      -7.74648
674.291,64.27333,      -7.74753
674.809,64.32500,      -7.74818
675.323,64.37667,      -7.74893
675.836,64.42833,      -7.74979
676.353,64.48000,      -7.75054
676.869,64.53167,      -7.75099
677.38,64.58333,      -7.75185
677.899,64.63500,      -7.75260
678.414,64.68667,      -7.75315
678.933,64.73833,      -7.75380
679.455,64.79000,      -7.75434
679.971,64.84167,      -7.75509
680.487,64.89333,      -7.75555
681.004,64.94500,      -7.75660
681.516,64.99667,      -7.75725
682.033,65.04833,      -7.75810
682.547,65.10000,      -7.75885
683.063,65.15167,      -7.75960
683.579,65.20333,      -7.76035
684.095,65.25500,      -7.76130
684.615,65.30667,      -7.76225
685.132,65.35833,      -7.76310
685.65,65.41000,      -7.76375
686.168,65.46167,      -7.76460
686.684,65.51333,      -7.76545
687.201,65.56500,      -7.76630
687.719,65.61667,      -7.76695
688.234,65.66833,      -7.76770
688.752,65.72000,      -7.76834
689.268,65.77167,      -7.76899
689.788,65.82333,      -7.76974
690.304,65.87500,      -7.77059
690.816,65.92667,      -7.77154
691.334,65.97833,      -7.77279
691.851,66.03000,      -7.77394
692.371,66.08167,      -7.77459
692.888,66.13333,      -7.77533
693.404,66.18500,      -7.77579
693.919,66.23667,      -7.77653
694.437,66.28833,      -7.77738
694.952,66.34000,      -7.77783
695.468,66.39167,      -7.77848
695.986,66.44333,      -7.77923
696.499,66.49500,      -7.78028
697.019,66.54667,      -7.78062
697.537,66.59833,      -7.78057
698.055,66.65000,      -7.78092
698.57,66.70167,      -7.78277
699.084,66.75333,      -7.78512
699.602,66.80500,      -7.78596
700.121,66.85667,      -7.78661
700.639,66.90833,      -7.78736
701.152,66.96000,      -7.78791
701.669,67.01167,      -7.78856
702.182,67.06333,      -7.78921
702.697,67.11500,      -7.78986
703.213,67.16667,      -7.79080
703.729,67.21833,      -7.79165
704.246,67.27000,      -7.79250
704.765,67.32167,      -7.79314
705.278,67.37333,      -7.79369
705.794,67.42500,      -7.79414
706.313,67.47667,      -7.79479
706.826,67.52833,      -7.79533
707.344,67.58000,      -7.79608
707.864,67.63167,      -7.79683
708.38,67.68333,      -7.79757
708.897,67.73500,      -7.79762
709.418,67.78667,      -7.79747
709.931,67.83833,      -7.79782
710.443,67.89000,      -7.80027
710.953,67.94167,      -7.80242
711.472,67.99333,      -7.80366
711.992,68.04500,      -7.80421
712.511,68.09667,      -7.80485
713.027,68.14833,      -7.80520
713.546,68.20000,      -7.80565
714.061,68.25167,      -7.80610
714.578,68.30333,      -7.80654
715.097,68.35500,      -7.80729
715.613,68.40667,      -7.80774
716.127,68.45833,      -7.80849
716.643,68.51000,      -7.80934
717.156,68.56167,      -7.80998
717.674,68.61333,      -7.81053
718.195,68.66500,      -7.81127
718.708,68.71667,      -7.81162
719.227,68.76833,      -7.81217
719.743,68.82000,      -7.81302
720.261,68.87167,      -7.81406
720.774,68.92333,      -7.81491
721.287,68.97500,      -7.81546
721.801,69.02667,      -7.81631
722.32,69.07833,      -7.81705
722.839,69.13000,      -7.81759
723.354,69.18167,      -7.81824
723.872,69.23333,      -7.81909
724.387,69.28500,      -7.81984
724.901,69.33667,      -7.82048
725.414,69.38833,      -7.82123
725.934,69.44000,      -7.82197
726.452,69.49167,      -7.82292
726.967,69.54333,      -7.82367
727.482,69.59500,      -7.82441
727.997,69.64667,      -7.82486
728.513,69.69833,      -7.82570
729.029,69.75000,      -7.82655
729.545,69.80167,      -7.82700
730.063,69.85333,      -7.82744
730.579,69.90500,      -7.82779
731.097,69.95667,      -7.82853
731.615,70.00833,      -7.82947
732.134,70.06000,      -7.83062
732.645,70.11167,      -7.83147
733.16,70.16333,      -7.83231
733.676,70.21500,      -7.83316
734.192,70.26667,      -7.83390
734.711,70.31833,      -7.83475
735.228,70.37000,      -7.83529
735.741,70.42167,      -7.83573
736.259,70.47333,      -7.83638
736.775,70.52500,      -7.83682
737.294,70.57667,      -7.83747
737.813,70.62833,      -7.83801
738.332,70.68000,      -7.83875
738.848,70.73167,      -7.83960
739.365,70.78333,      -7.84044
739.879,70.83500,      -7.84098
740.394,70.88667,      -7.84173
740.912,70.93833,      -7.84247
741.427,70.99000,      -7.84331
741.945,71.04167,      -7.84416
742.462,71.09333,      -7.84510
742.978,71.14500,      -7.84604
743.499,71.19667,      -7.84588
744.014,71.24833,      -7.84703
744.53,71.30000,      -7.84797
745.047,71.35167,      -7.84881
745.563,71.40333,      -7.84925
746.078,71.45500,      -7.84990
746.595,71.50667,      -7.85064
747.11,71.55833,      -7.85148
747.627,71.61000,      -7.85202
748.148,71.66167,      -7.85266
748.667,71.71333,      -7.85320
749.182,71.76500,      -7.85364
749.7,71.81667,      -7.85428
750.213,71.86833,      -7.85503
750.731,71.92000,      -7.85507
751.248,71.97167,      -7.85551
751.765,72.02333,      -7.85755
752.281,72.07500,      -7.85869
752.797,72.12667,      -7.85953
753.314,72.17833,      -7.86027
753.832,72.23000,      -7.86051
754.348,72.28167,      -7.86095
754.862,72.33333,      -7.86159
755.378,72.38500,      -7.86223
755.894,72.43667,      -7.86287
756.412,72.48833,      -7.86280
756.93,72.54000,      -7.86364
757.445,72.59167,      -7.86498
757.963,72.64333,      -7.86572
758.478,72.69500,      -7.86626
758.996,72.74667,      -7.86690
759.513,72.79833,      -7.86783
760.027,72.85000,      -7.86867
760.544,72.90167,      -7.86931
761.061,72.95333,      -7.86985
761.576,73.00500,      -7.87048
762.093,73.05667,      -7.87102
762.609,73.10833,      -7.87146
763.124,73.16000,      -7.87210
763.641,73.21167,      -7.87263
764.163,73.26333,      -7.87327
764.675,73.31500,      -7.87410
765.192,73.36667,      -7.87484
765.704,73.41833,      -7.87568
766.221,73.47000,      -7.87662
766.735,73.52167,      -7.87765
767.251,73.57333,      -7.87849
767.764,73.62500,      -7.87922
768.283,73.67667,      -7.88005
768.802,73.72833,      -7.88069
769.318,73.78000,      -7.88102
769.834,73.83167,      -7.88066
770.351,73.88333,      -7.88189
770.868,73.93500,      -7.88282
771.381,73.98667,      -7.88356
771.899,74.03833,      -7.88419
772.419,74.09000,      -7.88462
772.935,74.14167,      -7.88516
773.451,74.19333,      -7.88569
773.968,74.24500,      -7.88632
774.487,74.29667,      -7.88695
775.004,74.34833,      -7.88778
775.522,74.40000,      -7.88862
776.035,74.45167,      -7.88905
776.55,74.50333,      -7.88948
777.066,74.55500,      -7.89001
777.585,74.60667,      -7.89044
778.098,74.65833,      -7.89117
778.621,74.71000,      -7.89180
779.135,74.76167,      -7.89263
779.65,74.81333,      -7.89336
780.166,74.86500,      -7.89429
780.684,74.91667,      -7.89512
781.199,74.96833,      -7.89535
781.715,75.02000,      -7.89628
782.232,75.07167,      -7.89731
782.752,75.12333,      -7.89814
783.27,75.17500,      -7.89876
783.789,75.22667,      -7.89949
784.304,75.27833,      -7.90012
784.82,75.33000,      -7.90065
785.334,75.38167,      -7.90128
785.849,75.43333,      -7.90180
786.363,75.48500,      -7.90253
786.881,75.53667,      -7.90326
787.401,75.58833,      -7.90388
787.917,75.64000,      -7.90491
788.432,75.69167,      -7.90593
788.952,75.74333,      -7.90676
789.475,75.79500,      -7.90758
789.988,75.84667,      -7.90841
790.505,75.89833,      -7.90903
791.02,75.95000,      -7.90956
791.535,76.00167,      -7.91018
792.048,76.05333,      -7.91081
792.563,76.10500,      -7.91153
793.08,76.15667,      -7.91195
793.599,76.20833,      -7.91277
794.114,76.26000,      -7.91360
794.634,76.31167,      -7.91432
795.152,76.36333,      -7.91504
795.668,76.41500,      -7.91546
796.185,76.46667,      -7.91608
796.705,76.51833,      -7.91670
797.224,76.57000,      -7.91752
797.735,76.62167,      -7.91825
798.25,76.67333,      -7.91887
798.766,76.72500,      -7.91969
799.284,76.77667,      -7.92051
799.504,76.79833,      -7.92073