File: data-raw/TGA/N_TGA.csv
#EXPORTTYPE:                 ,DATA SINGLE
#FILE:                       ,N.ngb-st9
#FORMAT:                     ,NETZSCH5
#FTYPE:                      ,ANSI
#IDENTITY:                   ,Saras
#DECIMAL:                    ,POINT
#SEPARATOR:                  ,COMMA
#MTYPE:                      ,TG
#INSTRUMENT:                 ,NETZSCH TG 209F1 Libra
#PROJECT:                    ,IL
#DATE/TIME:                  ,21/03/2017 1:02:09 PM (UTC+11)
#CORR. FILE:                 ,
#TEMPCAL:                    ,TCALZERO.TCX
#LABORATORY:                 ,Capture Lab
#OPERATOR:                   ,NJN
#REMARK:                     ,Training run
#SAMPLE:                     ,N
#SAMPLE MASS /mg:            ,10.6537
#MATERIAL:                   ,zeolite
#TYPE OF CRUCIBLE:           ,Al2O3
#SAMPLE CRUCIBLE MASS /mg:   ,312.0539
#REFERENCE CRUCIBLE MASS /mg:,
#M.RANGE /mg:                ,2000
#CORR. CODE:                 ,090
#RANGE:                      ,32°C/10.0(K/min)/800°C
#SEGMENT:                    ,S1/1
#SEG. 1:                     ,32°C/10.0(K/min)/800°C

##Temp./°C,Time/min,Mass loss/mg
 31.49000, 0.00000,-2.293855e-003
 31.49200, 0.05167,-3.218676e-003
 31.55100, 0.10333,-4.496684e-003
 31.87300, 0.15500,-4.745032e-003
 32.28400, 0.20667,-3.432233e-003
 32.66200, 0.25833,-3.603596e-003
 33.04600, 0.31000,-4.472983e-003
 33.48200, 0.36167,-5.131127e-003
 33.96200, 0.41333,-6.010874e-003
 34.46800, 0.46500,-6.960135e-003
 34.99900, 0.51667,-7.776702e-003
 35.55800, 0.56833,-8.678008e-003
 36.14200, 0.62000,-9.714259e-003
 36.74700, 0.67167,-1.069723e-002
 37.36700, 0.72333,-1.209231e-002
 38.00500, 0.77500,-1.351683e-002
 38.65000, 0.82667,-1.505249e-002
 39.30100, 0.87833,-1.699963e-002
 39.95400, 0.93000,-1.924004e-002
 40.61000, 0.98167,-2.184533e-002
 41.26600, 1.03333,-2.469675e-002
 41.92000, 1.08500,-2.730687e-002
 42.56200, 1.13667,-2.998829e-002
 43.19500, 1.18833,-3.245167e-002
 43.82500, 1.24000,-3.498987e-002
 44.44300, 1.29167,-3.787215e-002
 45.05200, 1.34333,-4.047698e-002
 45.65300, 1.39500,-4.334192e-002
 46.23700, 1.44667,-4.658357e-002
 46.81300, 1.49833,-4.991425e-002
 47.38100, 1.55000,-5.317821e-002
 47.93700, 1.60167,-5.661644e-002
 48.48400, 1.65333,-5.995939e-002
 49.01800, 1.70500,-6.368844e-002
 49.55300, 1.75667,-6.750483e-002
 50.07300, 1.80833,-7.094731e-002
 50.59100, 1.86000,-7.476817e-002
 51.10300, 1.91167,-7.848602e-002
 51.60900, 1.96333,-8.210305e-002
 52.11100, 2.01500,-8.554895e-002
 52.61200, 2.06667,-8.931828e-002
 53.10800, 2.11833,-9.317913e-002
 53.60600, 2.17000,-9.707686e-002
 54.10100, 2.22167,      -0.10108
 54.59900, 2.27333,      -0.10500
 55.09800, 2.32500,      -0.10956
 55.58900, 2.37667,      -0.11316
 56.08700, 2.42833,      -0.11732
 56.58500, 2.48000,      -0.12117
 57.08300, 2.53167,      -0.12571
 57.58400, 2.58333,      -0.12996
 58.08700, 2.63500,      -0.13451
 58.59200, 2.68667,      -0.13888
 59.09700, 2.73833,      -0.14295
 59.60700, 2.79000,      -0.14754
 60.11600, 2.84167,      -0.15218
 60.62900, 2.89333,      -0.15673
 61.14300, 2.94500,      -0.16101
 61.66000, 2.99667,      -0.16547
 62.17700, 3.04833,      -0.16961
 62.69500, 3.10000,      -0.17398
 63.21500, 3.15167,      -0.17852
 63.73500, 3.20333,      -0.18277
 64.25800, 3.25500,      -0.18732
 64.77600, 3.30667,      -0.19173
 65.30000, 3.35833,      -0.19628
 65.82100, 3.41000,      -0.20060
 66.34600, 3.46167,      -0.20523
 66.86600, 3.51333,      -0.20934
 67.38800, 3.56500,      -0.21385
 67.91000, 3.61667,      -0.21837
 68.43200, 3.66833,      -0.22238
 68.95500, 3.72000,      -0.22680
 69.47500, 3.77167,      -0.23070
 69.99300, 3.82333,      -0.23520
 70.51100, 3.87500,      -0.23890
 71.03500, 3.92667,      -0.24331
 71.55600, 3.97833,      -0.24734
 72.07500, 4.03000,      -0.25142
 72.59100, 4.08167,      -0.25602
 73.11100, 4.13333,      -0.26003
 73.62800, 4.18500,      -0.26392
 74.14600, 4.23667,      -0.26753
 74.66400, 4.28833,      -0.27143
 75.18100, 4.34000,      -0.27502
 75.69800, 4.39167,      -0.27892
 76.21600, 4.44333,      -0.28234
 76.73200, 4.49500,      -0.28582
 77.24800, 4.54667,      -0.28952
 77.76400, 4.59833,      -0.29323
 78.28200, 4.65000,      -0.29673
 78.79800, 4.70167,      -0.29983
 79.31500, 4.75333,      -0.30323
 79.83300, 4.80500,      -0.30633
 80.34700, 4.85667,      -0.30952
 80.86600, 4.90833,      -0.31254
 81.37800, 4.96000,      -0.31571
 81.89500, 5.01167,      -0.31872
 82.41400, 5.06333,      -0.32133
 82.93100, 5.11500,      -0.32383
 83.44500, 5.16667,      -0.32622
 83.96300, 5.21833,      -0.32892
 84.48300, 5.27000,      -0.33142
 85.00000, 5.32167,      -0.33402
 85.51800, 5.37333,      -0.33653
 86.03400, 5.42500,      -0.33891
 86.55000, 5.47667,      -0.34170
 87.07100, 5.52833,      -0.34340
 87.57500, 5.58000,      -0.34563
 88.09400, 5.63167,      -0.34764
 88.60800, 5.68333,      -0.34973
 89.13300, 5.73500,      -0.35179
 89.65100, 5.78667,      -0.35339
 90.16900, 5.83833,      -0.35488
 90.68900, 5.89000,      -0.35648
 91.20500, 5.94167,      -0.35875
 91.72300, 5.99333,      -0.36075
 92.24300, 6.04500,      -0.36235
 92.75800, 6.09667,      -0.36373
 93.27200, 6.14833,      -0.36531
 93.78900, 6.20000,      -0.36660
 94.30900, 6.25167,      -0.36810
 94.82700, 6.30333,      -0.36960
 95.34800, 6.35500,      -0.37081
 95.86500, 6.40667,      -0.37189
 96.38500, 6.45833,      -0.37319
 96.90200, 6.51000,      -0.37427
 97.41900, 6.56167,      -0.37527
 97.93900, 6.61333,      -0.37656
 98.45900, 6.66500,      -0.37765
 98.97500, 6.71667,      -0.37883
 99.49000, 6.76833,      -0.38002
100.008, 6.82000,      -0.38111
100.521, 6.87167,      -0.38212
101.037, 6.92333,      -0.38282
101.555, 6.97500,      -0.38374
102.07, 7.02667,      -0.38455
102.588, 7.07833,      -0.38537
103.101, 7.13000,      -0.38607
103.618, 7.18167,      -0.38668
104.131, 7.23333,      -0.38738
104.647, 7.28500,      -0.38830
105.163, 7.33667,      -0.38910
105.68, 7.38833,      -0.38960
106.198, 7.44000,      -0.39031
106.714, 7.49167,      -0.39081
107.23, 7.54333,      -0.39161
107.746, 7.59500,      -0.39211
108.265, 7.64667,      -0.39261
108.781, 7.69833,      -0.39311
109.299, 7.75000,      -0.39370
109.816, 7.80167,      -0.39440
110.334, 7.85333,      -0.39508
110.85, 7.90500,      -0.39567
111.363, 7.95667,      -0.39635
111.879, 8.00833,      -0.39704
112.396, 8.06000,      -0.39733
112.913, 8.11167,      -0.39752
113.426, 8.16333,      -0.39780
113.946, 8.21500,      -0.39830
114.461, 8.26667,      -0.39878
114.977, 8.31833,      -0.39925
115.492, 8.37000,      -0.39973
116.006, 8.42167,      -0.40020
116.524, 8.47333,      -0.40069
117.038, 8.52500,      -0.40097
117.554, 8.57667,      -0.40115
118.072, 8.62833,      -0.40163
118.59, 8.68000,      -0.40211
119.103, 8.73167,      -0.40258
119.62, 8.78333,      -0.40285
120.134, 8.83500,      -0.40322
120.654, 8.88667,      -0.40350
121.17, 8.93833,      -0.40377
121.686, 8.99000,      -0.40413
122.201, 9.04167,      -0.40430
122.72, 9.09333,      -0.40478
123.237, 9.14500,      -0.40524
123.752, 9.19667,      -0.40560
124.271, 9.24833,      -0.40606
124.786, 9.30000,      -0.40623
125.303, 9.35167,      -0.40659
125.819, 9.40333,      -0.40695
126.336, 9.45500,      -0.40731
126.855, 9.50667,      -0.40758
127.374, 9.55833,      -0.40784
127.889, 9.61000,      -0.40820
128.407, 9.66167,      -0.40865
128.92, 9.71333,      -0.40880
129.435, 9.76500,      -0.40915
129.957, 9.81667,      -0.40952
130.476, 9.86833,      -0.40998
130.991, 9.92000,      -0.41023
131.508, 9.97167,      -0.41067
132.023,10.02333,      -0.41093
132.541,10.07500,      -0.41138
133.057,10.12667,      -0.41192
133.575,10.17833,      -0.41238
134.092,10.23000,      -0.41283
134.608,10.28167,      -0.41327
135.126,10.33333,      -0.41373
135.643,10.38500,      -0.41427
136.158,10.43667,      -0.41471
136.677,10.48833,      -0.41516
137.195,10.54000,      -0.41552
137.711,10.59167,      -0.41595
138.229,10.64333,      -0.41630
138.746,10.69500,      -0.41674
139.262,10.74667,      -0.41728
139.78,10.79833,      -0.41773
140.294,10.85000,      -0.41826
140.811,10.90167,      -0.41901
141.328,10.95333,      -0.41944
141.846,11.00500,      -0.41988
142.358,11.05667,      -0.42052
142.876,11.10833,      -0.42126
143.394,11.16000,      -0.42210
143.911,11.21167,      -0.42275
144.431,11.26333,      -0.42349
144.95,11.31500,      -0.42403
145.466,11.36667,      -0.42465
145.978,11.41833,      -0.42528
146.494,11.47000,      -0.42592
147.011,11.52167,      -0.42676
147.528,11.57333,      -0.42729
148.047,11.62500,      -0.42803
148.564,11.67667,      -0.42866
149.08,11.72833,      -0.42949
149.6,11.78000,      -0.43034
150.119,11.83167,      -0.43137
150.637,11.88333,      -0.43240
151.153,11.93500,      -0.43333
151.672,11.98667,      -0.43436
152.185,12.03833,      -0.43548
152.705,12.09000,      -0.43642
153.22,12.14167,      -0.43715
153.739,12.19333,      -0.43788
154.25,12.24500,      -0.43880
154.773,12.29667,      -0.43984
155.288,12.34833,      -0.44077
155.806,12.40000,      -0.44200
156.322,12.45167,      -0.44313
156.837,12.50333,      -0.44405
157.355,12.55500,      -0.44538
157.87,12.60667,      -0.44641
158.388,12.65833,      -0.44743
158.904,12.71000,      -0.44857
159.418,12.76167,      -0.44959
159.935,12.81333,      -0.45072
160.455,12.86500,      -0.45185
160.969,12.91667,      -0.45297
161.484,12.96833,      -0.45439
162.002,13.02000,      -0.45582
162.52,13.07167,      -0.45716
163.034,13.12333,      -0.45858
163.553,13.17500,      -0.45961
164.067,13.22667,      -0.46113
164.584,13.27833,      -0.46256
165.102,13.33000,      -0.46389
165.616,13.38167,      -0.46541
166.133,13.43333,      -0.46704
166.651,13.48500,      -0.46897
167.166,13.53667,      -0.47099
167.68,13.58833,      -0.47331
168.201,13.64000,      -0.47505
168.716,13.69167,      -0.47637
169.234,13.74333,      -0.47780
169.751,13.79500,      -0.47933
170.269,13.84667,      -0.48156
170.786,13.89833,      -0.48368
171.305,13.95000,      -0.48611
171.821,14.00167,      -0.48783
172.337,14.05333,      -0.49015
172.851,14.10500,      -0.49218
173.369,14.15667,      -0.49430
173.886,14.20833,      -0.49653
174.402,14.26000,      -0.49856
174.917,14.31167,      -0.50098
175.435,14.36333,      -0.50341
175.949,14.41500,      -0.50594
176.465,14.46667,      -0.50837
176.984,14.51833,      -0.51070
177.499,14.57000,      -0.51312
178.015,14.62167,      -0.51565
178.532,14.67333,      -0.51838
179.051,14.72500,      -0.52081
179.566,14.77667,      -0.52334
180.086,14.82833,      -0.52587
180.599,14.88000,      -0.52899
181.115,14.93167,      -0.53202
181.632,14.98333,      -0.53485
182.147,15.03500,      -0.53758
182.665,15.08667,      -0.54071
183.181,15.13833,      -0.54414
183.7,15.19000,      -0.54708
184.218,15.24167,      -0.55011
184.736,15.29333,      -0.55314
185.254,15.34500,      -0.55617
185.768,15.39667,      -0.55900
186.284,15.44833,      -0.56243
186.801,15.50000,      -0.56566
187.317,15.55167,      -0.56910
187.835,15.60333,      -0.57273
188.351,15.65500,      -0.57596
188.868,15.70667,      -0.57940
189.385,15.75833,      -0.58253
189.9,15.81000,      -0.58597
190.417,15.86167,      -0.58940
190.934,15.91333,      -0.59314
191.45,15.96500,      -0.59637
191.967,16.01667,      -0.60001
192.485,16.06833,      -0.60365
192.999,16.12000,      -0.60709
193.518,16.17167,      -0.61063
194.031,16.22333,      -0.61386
194.551,16.27500,      -0.61751
195.067,16.32667,      -0.62085
195.584,16.37833,      -0.62459
196.101,16.43000,      -0.62803
196.618,16.48167,      -0.63177
197.136,16.53333,      -0.63561
197.653,16.58500,      -0.63915
198.169,16.63667,      -0.64299
198.687,16.68833,      -0.64644
199.203,16.74000,      -0.65038
199.719,16.79167,      -0.65433
200.234,16.84333,      -0.65837
200.751,16.89500,      -0.66172
201.268,16.94667,      -0.66616
201.787,16.99833,      -0.67052
202.305,17.05000,      -0.67436
202.822,17.10167,      -0.67861
203.341,17.15333,      -0.68245
203.854,17.20500,      -0.68670
204.372,17.25667,      -0.69045
204.888,17.30833,      -0.69469
205.406,17.36000,      -0.69874
205.922,17.41167,      -0.70349
206.437,17.46333,      -0.70793
206.953,17.51500,      -0.71208
207.467,17.56667,      -0.71652
207.986,17.61833,      -0.72088
208.501,17.67000,      -0.72582
209.021,17.72167,      -0.73017
209.536,17.77333,      -0.73492
210.051,17.82500,      -0.73967
210.568,17.87667,      -0.74482
211.085,17.92833,      -0.74997
211.605,17.98000,      -0.75462
212.125,18.03167,      -0.75997
212.639,18.08333,      -0.76481
213.152,18.13500,      -0.77026
213.669,18.18667,      -0.77541
214.185,18.23833,      -0.78096
214.701,18.29000,      -0.78641
215.218,18.34167,      -0.79186
215.738,18.39333,      -0.79781
216.257,18.44500,      -0.80306
216.774,18.49667,      -0.80901
217.291,18.54833,      -0.81496
217.807,18.60000,      -0.82101
218.323,18.65167,      -0.82686
218.835,18.70333,      -0.83330
219.354,18.75500,      -0.83935
219.871,18.80667,      -0.84611
220.386,18.85833,      -0.85236
220.903,18.91000,      -0.85851
221.42,18.96167,      -0.86526
221.937,19.01333,      -0.87201
222.452,19.06500,      -0.87896
222.968,19.11667,      -0.88541
223.484,19.16833,      -0.89276
224.004,19.22000,      -0.89941
224.518,19.27167,      -0.90716
225.034,19.32333,      -0.91471
225.552,19.37500,      -0.92186
226.068,19.42667,      -0.92962
226.583,19.47833,      -0.93667
227.1,19.53000,      -0.94472
227.617,19.58167,      -0.95217
228.133,19.63333,      -0.96042
228.65,19.68500,      -0.96807
229.167,19.73667,      -0.97633
229.684,19.78833,      -0.98487
230.2,19.84000,      -0.99263
230.716,19.89167,      -1.00118
231.231,19.94333,      -1.00963
231.745,19.99500,      -1.01868
232.265,20.04667,      -1.02743
232.783,20.09833,      -1.03649
233.299,20.15000,      -1.04504
233.815,20.20167,      -1.05479
234.33,20.25333,      -1.06424
234.846,20.30500,      -1.07339
235.362,20.35667,      -1.08295
235.881,20.40833,      -1.09220
236.397,20.46000,      -1.10225
236.915,20.51167,      -1.11180
237.432,20.56333,      -1.12216
237.946,20.61500,      -1.13161
238.463,20.66667,      -1.14236
238.98,20.71833,      -1.15251
239.497,20.77000,      -1.16256
240.015,20.82167,      -1.17392
240.531,20.87333,      -1.18447
241.051,20.92500,      -1.19582
241.566,20.97667,      -1.20627
242.081,21.02833,      -1.21802
242.596,21.08000,      -1.22908
243.114,21.13167,      -1.24053
243.631,21.18333,      -1.25248
244.147,21.23500,      -1.26363
244.663,21.28667,      -1.27558
245.181,21.33833,      -1.28744
245.696,21.39000,      -1.29989
246.216,21.44167,      -1.31224
246.731,21.49333,      -1.32489
247.249,21.54500,      -1.33725
247.763,21.59667,      -1.35070
248.281,21.64833,      -1.36395
248.797,21.70000,      -1.37700
249.313,21.75167,      -1.40165
249.83,21.80333,      -1.41451
250.347,21.85500,      -1.42496
250.863,21.90667,      -1.43651
251.377,21.95833,      -1.46266
251.895,22.01000,      -1.47211
252.411,22.06167,      -1.48407
252.928,22.11333,      -1.49682
253.445,22.16500,      -1.51977
253.96,22.21667,      -1.53102
254.479,22.26833,      -1.55417
254.994,22.32000,      -1.56562
255.512,22.37167,      -1.57708
256.029,22.42333,      -1.60333
256.545,22.47500,      -1.61938
257.06,22.52667,      -1.63733
257.577,22.57833,      -1.65528
258.094,22.63000,      -1.67253
258.611,22.68167,      -1.69069
259.128,22.73333,      -1.70864
259.645,22.78500,      -1.72789
260.161,22.83667,      -1.74584
260.677,22.88833,      -1.76549
261.194,22.94000,      -1.78594
261.714,22.99167,      -1.80499
262.227,23.04333,      -1.82564
262.744,23.09500,      -1.84579
263.262,23.14667,      -1.86724
263.78,23.19833,      -1.88730
264.296,23.25000,      -1.90945
264.812,23.30167,      -1.93050
265.329,23.35333,      -1.95385
265.845,23.40500,      -1.97540
266.359,23.45667,      -1.99935
266.878,23.50833,      -2.02340
267.397,23.56000,      -2.04665
267.91,23.61167,      -2.07130
268.427,23.66333,      -2.09505
268.947,23.71500,      -2.12130
269.461,23.76667,      -2.14615
269.98,23.81833,      -2.17270
270.495,23.87000,      -2.19845
271.013,23.92167,      -2.22509
271.53,23.97333,      -2.25294
272.045,24.02500,      -2.27999
272.563,24.07667,      -2.30834
273.075,24.12833,      -2.33579
273.59,24.18000,      -2.36484
274.108,24.23167,      -2.39229
274.623,24.28333,      -2.42214
275.139,24.33500,      -2.45058
275.656,24.38667,      -2.48153
276.173,24.43833,      -2.51288
276.692,24.49000,      -2.54283
277.208,24.54167,      -2.57498
277.722,24.59333,      -2.60542
278.238,24.64500,      -2.63737
278.757,24.69667,      -2.66862
279.273,24.74833,      -2.70217
279.787,24.80000,      -2.73361
280.304,24.85167,      -2.76796
280.819,24.90333,      -2.80201
281.334,24.95500,      -2.83426
281.853,25.00667,      -2.86900
282.367,25.05833,      -2.90135
282.889,25.11000,      -2.93709
283.408,25.16167,      -2.97064
283.941,25.21333,      -3.00649
284.459,25.26500,      -3.04013
284.975,25.31667,      -3.07648
285.489,25.36833,      -3.11212
286.001,25.42000,      -3.14897
286.513,25.47167,      -3.18581
287.023,25.52333,      -3.22046
287.537,25.57500,      -3.25720
288.052,25.62667,      -3.29285
288.566,25.67833,      -3.33129
289.083,25.73000,      -3.36694
289.597,25.78167,      -3.40598
290.115,25.83333,      -3.44483
290.627,25.88500,      -3.48097
291.143,25.93667,      -3.52001
291.659,25.98833,      -3.55716
292.175,26.04000,      -3.59690
292.69,26.09167,      -3.63454
293.21,26.14333,      -3.67509
293.728,26.19500,      -3.71303
294.246,26.24667,      -3.75367
294.764,26.29833,      -3.79511
295.28,26.35000,      -3.83426
295.8,26.40167,      -3.87600
296.316,26.45333,      -3.91574
296.834,26.50500,      -3.95858
297.353,26.55667,      -3.99962
297.866,26.60833,      -4.04276
298.385,26.66000,      -4.08690
298.904,26.71167,      -4.12864
299.42,26.76333,      -4.17328
299.939,26.81500,      -4.21552
300.453,26.86667,      -4.26176
300.967,26.91833,      -4.30510
301.484,26.97000,      -4.35164
302.003,27.02167,      -4.39558
302.516,27.07333,      -4.44392
303.033,27.12500,      -4.49146
303.549,27.17667,      -4.53780
304.063,27.22833,      -4.58695
304.577,27.28000,      -4.63369
305.095,27.33167,      -4.68383
305.609,27.38333,      -4.73037
306.126,27.43500,      -4.78161
306.642,27.48667,      -4.82945
307.159,27.53833,      -4.88099
307.678,27.59000,      -4.92993
308.194,27.64167,      -4.98197
308.711,27.69333,      -5.03481
309.226,27.74500,      -5.08395
309.742,27.79667,      -5.13679
310.258,27.84833,      -5.18573
310.775,27.90000,      -5.23817
311.292,27.95167,      -5.28761
311.808,28.00333,      -5.33955
312.325,28.05500,      -5.39099
312.844,28.10667,      -5.43903
313.359,28.15833,      -5.48897
313.877,28.21000,      -5.53591
314.395,28.26167,      -5.58455
314.911,28.31333,      -5.62949
315.431,28.36500,      -5.67653
315.947,28.41667,      -5.71947
316.464,28.46833,      -5.76461
316.982,28.52000,      -5.80475
317.498,28.57167,      -5.84719
318.016,28.62333,      -5.88793
318.529,28.67500,      -5.92477
319.047,28.72667,      -5.96251
319.559,28.77833,      -5.99575
320.073,28.83000,      -6.03089
320.607,28.88167,      -6.06192
321.122,28.93333,      -6.09346
321.635,28.98500,      -6.12181
322.141,29.03667,      -6.15065
322.656,29.08833,      -6.17769
323.168,29.14000,      -6.20173
323.683,29.19167,      -6.22607
324.193,29.24333,      -6.24741
324.709,29.29500,      -6.26935
325.22,29.34667,      -6.28899
325.739,29.39833,      -6.30833
326.256,29.45000,      -6.32647
326.77,29.50167,      -6.33911
327.287,29.55333,      -6.35725
327.806,29.60500,      -6.36798
328.323,29.65667,      -6.38052
328.84,29.70833,      -6.39346
329.359,29.76000,      -6.41410
329.877,29.81167,      -6.42394
330.391,29.86333,      -6.43438
330.912,29.91500,      -6.44542
331.429,29.96667,      -6.45636
331.947,30.01833,      -6.46810
332.467,30.07000,      -6.47893
332.98,30.12167,      -6.48967
333.498,30.17333,      -6.50001
334.014,30.22500,      -6.51035
334.532,30.27667,      -6.51979
335.047,30.32833,      -6.52973
335.565,30.38000,      -6.53867
336.08,30.43167,      -6.54821
336.599,30.48333,      -6.55715
337.114,30.53500,      -6.56548
337.628,30.58667,      -6.57452
338.14,30.63833,      -6.58276
338.659,30.69000,      -6.59130
339.173,30.74167,      -6.59874
339.69,30.79333,      -6.60708
340.205,30.84500,      -6.61481
340.721,30.89667,      -6.62215
341.238,30.94833,      -6.63009
341.754,31.00000,      -6.63693
342.272,31.05167,      -6.64486
342.789,31.10333,      -6.65200
343.308,31.15500,      -6.65894
343.824,31.20667,      -6.66568
344.342,31.25833,      -6.67261
344.856,31.31000,      -6.67995
345.376,31.36167,      -6.68659
345.894,31.41333,      -6.69352
346.41,31.46500,      -6.70026
346.926,31.51667,      -6.70690
347.443,31.56833,      -6.71294
347.959,31.62000,      -6.71957
348.477,31.67167,      -6.72571
348.994,31.72333,      -6.73224
349.509,31.77500,      -6.73858
350.027,31.82667,      -6.74462
350.541,31.87833,      -6.75086
351.056,31.93000,      -6.75679
351.57,31.98167,      -6.76313
352.088,32.03333,      -6.76866
352.606,32.08500,      -6.77470
353.12,32.13667,      -6.78063
353.635,32.18833,      -6.78657
354.152,32.24000,      -6.79261
354.668,32.29167,      -6.79794
355.185,32.34333,      -6.80388
355.702,32.39500,      -6.80911
356.218,32.44667,      -6.81464
356.737,32.49833,      -6.81958
357.251,32.55000,      -6.82512
357.768,32.60167,      -6.83035
358.286,32.65333,      -6.83588
358.8,32.70500,      -6.84142
359.314,32.75667,      -6.84646
359.834,32.80833,      -6.85219
360.349,32.86000,      -6.85712
360.866,32.91167,      -6.86256
361.382,32.96333,      -6.86759
361.898,33.01500,      -6.87292
362.415,33.06667,      -6.87796
362.93,33.11833,      -6.88279
363.446,33.17000,      -6.88832
363.965,33.22167,      -6.89366
364.477,33.27333,      -6.89909
364.994,33.32500,      -6.90372
365.508,33.37667,      -6.90856
366.026,33.42833,      -6.91309
366.544,33.48000,      -6.91842
367.062,33.53167,      -6.92295
367.577,33.58333,      -6.92818
368.095,33.63500,      -6.93332
368.612,33.68667,      -6.93805
369.13,33.73833,      -6.94268
369.645,33.79000,      -6.94711
370.162,33.84167,      -6.95224
370.68,33.89333,      -6.95717
371.199,33.94500,      -6.96180
371.717,33.99667,      -6.96633
372.23,34.04833,      -6.97107
372.747,34.10000,      -6.97600
373.259,34.15167,      -6.98033
373.779,34.20333,      -6.98506
374.292,34.25500,      -6.98949
374.808,34.30667,      -6.99382
375.322,34.35833,      -6.99825
375.839,34.41000,      -7.00268
376.354,34.46167,      -7.00741
376.871,34.51333,      -7.01204
377.388,34.56500,      -7.01647
377.903,34.61667,      -7.02100
378.421,34.66833,      -7.02542
378.936,34.72000,      -7.02956
379.453,34.77167,      -7.03408
379.971,34.82333,      -7.03841
380.483,34.87500,      -7.04284
381.001,34.92667,      -7.04687
381.518,34.97833,      -7.05120
382.035,35.03000,      -7.05582
382.55,35.08167,      -7.06025
383.066,35.13333,      -7.06458
383.582,35.18500,      -7.06841
384.097,35.23667,      -7.07263
384.613,35.28833,      -7.07676
385.13,35.34000,      -7.08119
385.647,35.39167,      -7.08521
386.161,35.44333,      -7.08974
386.677,35.49500,      -7.09456
387.196,35.54667,      -7.09869
387.712,35.59833,      -7.10332
388.228,35.65000,      -7.10734
388.742,35.70167,      -7.11147
389.259,35.75333,      -7.11569
389.776,35.80500,      -7.11982
390.293,35.85667,      -7.12374
390.808,35.90833,      -7.12807
391.324,35.96000,      -7.13199
391.841,36.01167,      -7.13581
392.357,36.06333,      -7.13974
392.873,36.11500,      -7.14386
393.388,36.16667,      -7.14828
393.907,36.21833,      -7.15220
394.422,36.27000,      -7.15663
394.939,36.32167,      -7.16045
395.452,36.37333,      -7.16468
395.971,36.42500,      -7.16880
396.487,36.47667,      -7.17252
397.006,36.52833,      -7.17624
397.52,36.58000,      -7.17986
398.036,36.63167,      -7.18408
398.551,36.68333,      -7.18771
399.067,36.73500,      -7.19163
399.583,36.78667,      -7.19555
400.101,36.83833,      -7.19947
400.616,36.89000,      -7.20359
401.134,36.94167,      -7.20761
401.65,36.99333,      -7.21183
402.166,37.04500,      -7.21565
402.685,37.09667,      -7.21827
403.199,37.14833,      -7.22219
403.713,37.20000,      -7.22711
404.231,37.25167,      -7.23193
404.747,37.30333,      -7.23555
405.263,37.35500,      -7.23897
405.778,37.40667,      -7.24219
406.298,37.45833,      -7.24630
406.814,37.51000,      -7.25062
407.33,37.56167,      -7.25444
407.845,37.61333,      -7.25826
408.359,37.66500,      -7.26218
408.875,37.71667,      -7.26580
409.391,37.76833,      -7.26962
409.91,37.82000,      -7.27323
410.426,37.87167,      -7.27695
410.943,37.92333,      -7.28097
411.459,37.97500,      -7.28469
411.976,38.02667,      -7.28860
412.492,38.07833,      -7.29212
413.008,38.13000,      -7.29594
413.525,38.18167,      -7.29916
414.041,38.23333,      -7.30307
414.559,38.28500,      -7.30669
415.073,38.33667,      -7.31021
415.59,38.38833,      -7.31402
416.106,38.44000,      -7.31764
416.624,38.49167,      -7.32136
417.141,38.54333,      -7.32477
417.658,38.59500,      -7.32839
418.175,38.64667,      -7.33231
418.689,38.69833,      -7.33602
419.207,38.75000,      -7.33944
419.725,38.80167,      -7.34295
420.241,38.85333,      -7.34677
420.757,38.90500,      -7.35018
421.273,38.95667,      -7.35410
421.79,39.00833,      -7.35762
422.307,39.06000,      -7.36143
422.822,39.11167,      -7.36445
423.337,39.16333,      -7.36796
423.851,39.21500,      -7.37138
424.37,39.26667,      -7.37389
424.885,39.31833,      -7.37810
425.402,39.37000,      -7.38222
425.917,39.42167,      -7.38603
426.432,39.47333,      -7.38935
426.948,39.52500,      -7.39246
427.464,39.57667,      -7.39588
427.982,39.62833,      -7.39969
428.498,39.68000,      -7.40320
429.016,39.73167,      -7.40612
429.532,39.78333,      -7.40973
430.046,39.83500,      -7.41314
430.564,39.88667,      -7.41676
431.085,39.93833,      -7.42057
431.6,39.99000,      -7.42408
432.114,40.04167,      -7.42740
432.63,40.09333,      -7.43091
433.146,40.14500,      -7.43422
433.663,40.19667,      -7.43753
434.181,40.24833,      -7.44104
434.699,40.30000,      -7.44445
435.218,40.35167,      -7.44787
435.732,40.40333,      -7.45118
436.25,40.45500,      -7.45479
436.766,40.50667,      -7.45780
437.282,40.55833,      -7.46142
437.794,40.61000,      -7.46493
438.312,40.66167,      -7.46794
438.826,40.71333,      -7.47095
439.343,40.76500,      -7.47416
439.86,40.81667,      -7.47757
440.374,40.86833,      -7.48088
440.891,40.92000,      -7.48389
441.406,40.97167,      -7.48681
441.922,41.02333,      -7.48972
442.438,41.07500,      -7.49313
442.953,41.12667,      -7.49604
443.469,41.17833,      -7.49905
443.984,41.23000,      -7.50246
444.499,41.28167,      -7.50527
445.014,41.33333,      -7.50818
445.528,41.38500,      -7.51109
446.045,41.43667,      -7.51410
446.558,41.48833,      -7.51751
447.078,41.54000,      -7.52072
447.596,41.59167,      -7.52332
448.115,41.64333,      -7.52633
448.634,41.69500,      -7.52943
449.152,41.74667,      -7.53244
449.668,41.79833,      -7.53506
450.187,41.85000,      -7.53796
450.701,41.90167,      -7.54057
451.217,41.95333,      -7.54348
451.733,42.00500,      -7.54639
452.25,42.05667,      -7.54910
452.767,42.10833,      -7.55201
453.283,42.16000,      -7.55472
453.797,42.21167,      -7.55762
454.311,42.26333,      -7.56023
454.828,42.31500,      -7.56294
455.342,42.36667,      -7.56535
455.857,42.41833,      -7.56786
456.374,42.47000,      -7.57056
456.889,42.52167,      -7.57327
457.406,42.57333,      -7.57618
457.921,42.62500,      -7.57888
458.439,42.67667,      -7.58179
458.954,42.72833,      -7.58459
459.471,42.78000,      -7.58720
459.987,42.83167,      -7.58961
460.504,42.88333,      -7.59251
461.021,42.93500,      -7.59522
461.542,42.98667,      -7.59762
462.055,43.03833,      -7.60013
462.573,43.09000,      -7.60273
463.091,43.14167,      -7.60504
463.606,43.19333,      -7.60735
464.12,43.24500,      -7.60975
464.637,43.29667,      -7.61226
465.151,43.34833,      -7.61516
465.663,43.40000,      -7.61737
466.18,43.45167,      -7.61947
466.696,43.50333,      -7.62198
467.212,43.55500,      -7.62388
467.73,43.60667,      -7.62628
468.245,43.65833,      -7.62859
468.763,43.71000,      -7.63109
469.281,43.76167,      -7.63350
469.801,43.81333,      -7.63590
470.318,43.86500,      -7.63830
470.834,43.91667,      -7.64051
471.35,43.96833,      -7.64281
471.866,44.02000,      -7.64481
472.382,44.07167,      -7.64632
472.897,44.12333,      -7.64852
473.413,44.17500,      -7.65103
473.928,44.22667,      -7.65303
474.443,44.27833,      -7.65523
474.961,44.33000,      -7.65713
475.475,44.38167,      -7.65904
475.991,44.43333,      -7.66144
476.508,44.48500,      -7.66344
477.026,44.53667,      -7.66574
477.544,44.58833,      -7.66784
478.059,44.64000,      -7.67024
478.575,44.69167,      -7.67215
479.091,44.74333,      -7.67415
479.607,44.79500,      -7.67605
480.125,44.84667,      -7.67795
480.639,44.89833,      -7.68006
481.153,44.95000,      -7.68206
481.67,45.00167,      -7.68406
482.184,45.05333,      -7.68606
482.7,45.10500,      -7.68836
483.219,45.15667,      -7.69036
483.736,45.20833,      -7.69246
484.255,45.26000,      -7.69436
484.774,45.31167,      -7.69556
485.29,45.36333,      -7.69726
485.807,45.41500,      -7.69916
486.324,45.46667,      -7.70126
486.841,45.51833,      -7.70316
487.356,45.57000,      -7.70526
487.87,45.62167,      -7.70696
488.388,45.67333,      -7.70836
488.901,45.72500,      -7.71046
489.418,45.77667,      -7.71236
489.93,45.82833,      -7.71426
490.45,45.88000,      -7.71586
490.966,45.93167,      -7.71765
491.482,45.98333,      -7.71905
491.997,46.03500,      -7.72095
492.511,46.08667,      -7.72285
493.029,46.13833,      -7.72425
493.544,46.19000,      -7.72555
494.062,46.24167,      -7.72715
494.577,46.29333,      -7.72914
495.095,46.34500,      -7.73074
495.611,46.39667,      -7.73224
496.129,46.44833,      -7.73384
496.64,46.50000,      -7.73614
497.162,46.55167,      -7.73793
497.675,46.60333,      -7.73983
498.19,46.65500,      -7.74163
498.71,46.70667,      -7.74272
499.228,46.75833,      -7.74362
499.743,46.81000,      -7.74562
500.261,46.86167,      -7.74781
500.772,46.91333,      -7.74941
501.289,46.96500,      -7.75131
501.806,47.01667,      -7.75290
502.323,47.06833,      -7.75480
502.84,47.12000,      -7.75640
503.355,47.17167,      -7.75739
503.873,47.22333,      -7.75859
504.391,47.27500,      -7.75968
504.908,47.32667,      -7.76108
505.424,47.37833,      -7.76268
505.937,47.43000,      -7.76457
506.453,47.48167,      -7.76647
506.969,47.53333,      -7.76857
507.488,47.58500,      -7.76986
508.002,47.63667,      -7.77116
508.519,47.68833,      -7.77255
509.036,47.74000,      -7.77375
509.552,47.79167,      -7.77534
510.067,47.84333,      -7.77684
510.58,47.89500,      -7.77883
511.093,47.94667,      -7.78033
511.609,47.99833,      -7.78153
512.121,48.05000,      -7.78283
512.638,48.10167,      -7.78382
513.154,48.15333,      -7.78521
513.674,48.20500,      -7.78650
514.19,48.25667,      -7.78770
514.706,48.30833,      -7.78899
515.225,48.36000,      -7.79068
515.745,48.41167,      -7.79228
516.255,48.46333,      -7.79378
516.772,48.51500,      -7.79507
517.285,48.56667,      -7.79647
517.806,48.61833,      -7.79776
518.321,48.67000,      -7.79905
518.838,48.72167,      -7.80044
519.356,48.77333,      -7.80144
519.874,48.82500,      -7.80273
520.39,48.87667,      -7.80412
520.903,48.92833,      -7.80532
521.419,48.98000,      -7.80661
521.934,49.03167,      -7.80781
522.453,49.08333,      -7.80920
522.969,49.13500,      -7.81019
523.486,49.18667,      -7.81158
524.002,49.23833,      -7.81288
524.518,49.29000,      -7.81407
525.034,49.34167,      -7.81536
525.549,49.39333,      -7.81636
526.067,49.44500,      -7.81755
526.585,49.49667,      -7.81884
527.097,49.54833,      -7.82003
527.615,49.60000,      -7.82122
528.133,49.65167,      -7.82252
528.649,49.70333,      -7.82371
529.164,49.75500,      -7.82510
529.68,49.80667,      -7.82619
530.194,49.85833,      -7.82719
530.711,49.91000,      -7.82828
531.228,49.96167,      -7.82917
531.745,50.01333,      -7.83056
532.262,50.06500,      -7.83185
532.78,50.11667,      -7.83314
533.292,50.16833,      -7.83443
533.808,50.22000,      -7.83582
534.324,50.27167,      -7.83721
534.837,50.32333,      -7.83841
535.356,50.37500,      -7.83970
535.874,50.42667,      -7.84058
536.388,50.47833,      -7.84178
536.904,50.53000,      -7.84287
537.418,50.58167,      -7.84386
537.938,50.63333,      -7.84465
538.457,50.68500,      -7.84593
538.972,50.73667,      -7.84702
539.491,50.78833,      -7.84811
540.006,50.84000,      -7.84900
540.523,50.89167,      -7.84999
541.038,50.94333,      -7.85098
541.554,50.99500,      -7.85177
542.069,51.04667,      -7.85276
542.583,51.09833,      -7.85355
543.099,51.15000,      -7.85454
543.619,51.20167,      -7.85552
544.136,51.25333,      -7.85681
544.655,51.30500,      -7.85800
545.172,51.35667,      -7.85899
545.683,51.40833,      -7.86028
546.197,51.46000,      -7.86137
546.712,51.51167,      -7.86226
547.23,51.56333,      -7.86315
547.743,51.61500,      -7.86434
548.261,51.66667,      -7.86502
548.78,51.71833,      -7.86581
549.296,51.77000,      -7.86679
549.814,51.82167,      -7.86738
550.331,51.87333,      -7.86847
550.849,51.92500,      -7.86945
551.363,51.97667,      -7.87054
551.88,52.02833,      -7.87153
552.394,52.08000,      -7.87252
552.912,52.13167,      -7.87350
553.427,52.18333,      -7.87469
553.944,52.23500,      -7.87567
554.462,52.28667,      -7.87646
554.979,52.33833,      -7.87744
555.497,52.39000,      -7.87823
556.011,52.44167,      -7.87872
556.529,52.49333,      -7.87950
557.045,52.54500,      -7.88009
557.558,52.59667,      -7.88118
558.071,52.64833,      -7.88226
558.586,52.70000,      -7.88315
559.102,52.75167,      -7.88403
559.621,52.80333,      -7.88521
560.134,52.85500,      -7.88620
560.651,52.90667,      -7.88698
561.169,52.95833,      -7.88766
561.688,53.01000,      -7.88874
562.208,53.06167,      -7.88973
562.724,53.11333,      -7.89031
563.236,53.16500,      -7.89110
563.753,53.21667,      -7.89188
564.271,53.26833,      -7.89277
564.789,53.32000,      -7.89375
565.306,53.37167,      -7.89493
565.825,53.42333,      -7.89591
566.338,53.47500,      -7.89700
566.857,53.52667,      -7.89788
567.375,53.57833,      -7.89866
567.889,53.63000,      -7.89944
568.406,53.68167,      -7.90023
568.923,53.73333,      -7.90091
569.44,53.78500,      -7.90199
569.96,53.83667,      -7.90287
570.475,53.88833,      -7.90345
570.992,53.94000,      -7.90413
571.51,53.99167,      -7.90471
572.026,54.04333,      -7.90539
572.543,54.09500,      -7.90637
573.063,54.14667,      -7.90715
573.577,54.19833,      -7.90803
574.096,54.25000,      -7.90871
574.614,54.30167,      -7.90949
575.128,54.35333,      -7.91028
575.641,54.40500,      -7.91116
576.157,54.45667,      -7.91204
576.671,54.50833,      -7.91292
577.191,54.56000,      -7.91370
577.708,54.61167,      -7.91467
578.226,54.66333,      -7.91555
578.74,54.71500,      -7.91643
579.257,54.76667,      -7.91731
579.775,54.81833,      -7.91789
580.291,54.87000,      -7.91867
580.807,54.92167,      -7.91945
581.322,54.97333,      -7.92003
581.834,55.02500,      -7.92081
582.352,55.07667,      -7.92168
582.867,55.12833,      -7.92236
583.382,55.18000,      -7.92324
583.9,55.23167,      -7.92391
584.42,55.28333,      -7.92479
584.938,55.33500,      -7.92566
585.459,55.38667,      -7.92674
585.975,55.43833,      -7.92731
586.494,55.49000,      -7.92799
587.011,55.54167,      -7.92847
587.527,55.59333,      -7.92924
588.043,55.64500,      -7.92992
588.559,55.69667,      -7.93060
589.074,55.74833,      -7.93117
589.593,55.80000,      -7.93205
590.104,55.85167,      -7.93283
590.622,55.90333,      -7.93350
591.14,55.95500,      -7.93417
591.659,56.00667,      -7.93474
592.174,56.05833,      -7.93542
592.692,56.11000,      -7.93609
593.209,56.16167,      -7.93697
593.726,56.21333,      -7.93784
594.243,56.26500,      -7.93872
594.758,56.31667,      -7.93949
595.274,56.36833,      -7.94047
595.793,56.42000,      -7.94133
596.312,56.47167,      -7.94191
596.827,56.52333,      -7.94268
597.346,56.57500,      -7.94335
597.863,56.62667,      -7.94392
598.378,56.67833,      -7.94460
598.892,56.73000,      -7.94547
599.412,56.78167,      -7.94614
599.928,56.83333,      -7.94681
600.443,56.88500,      -7.94709
600.961,56.93667,      -7.94776
601.477,56.98833,      -7.94863
601.993,57.04000,      -7.94940
602.508,57.09167,      -7.95007
603.023,57.14333,      -7.95054
603.545,57.19500,      -7.95141
604.062,57.24667,      -7.95198
604.579,57.29833,      -7.95255
605.093,57.35000,      -7.95322
605.612,57.40167,      -7.95399
606.128,57.45333,      -7.95486
606.646,57.50500,      -7.95553
607.165,57.55667,      -7.95619
607.684,57.60833,      -7.95676
608.199,57.66000,      -7.95733
608.717,57.71167,      -7.95800
609.232,57.76333,      -7.95847
609.745,57.81500,      -7.95894
610.257,57.86667,      -7.95961
610.774,57.91833,      -7.96018
611.288,57.97000,      -7.96085
611.804,58.02167,      -7.96171
612.322,58.07333,      -7.96228
612.84,58.12500,      -7.96304
613.356,58.17667,      -7.96361
613.876,58.22833,      -7.96438
614.395,58.28000,      -7.96534
614.913,58.33167,      -7.96611
615.427,58.38333,      -7.96678
615.945,58.43500,      -7.96734
616.46,58.48667,      -7.96781
616.98,58.53833,      -7.96837
617.493,58.59000,      -7.96884
618.009,58.64167,      -7.96961
618.526,58.69333,      -7.97017
619.041,58.74500,      -7.97104
619.557,58.79667,      -7.97180
620.075,58.84833,      -7.97227
620.59,58.90000,      -7.97293
621.107,58.95167,      -7.97350
621.618,59.00333,      -7.97387
622.137,59.05500,      -7.97453
622.654,59.10667,      -7.97509
623.172,59.15833,      -7.97555
623.689,59.21000,      -7.97632
624.206,59.26167,      -7.97698
624.721,59.31333,      -7.97755
625.236,59.36500,      -7.97791
625.754,59.41667,      -7.97867
626.267,59.46833,      -7.97914
626.782,59.52000,      -7.97990
627.298,59.57167,      -7.98066
627.814,59.62333,      -7.98113
628.331,59.67500,      -7.98169
628.848,59.72667,      -7.98235
629.362,59.77833,      -7.98291
629.882,59.83000,      -7.98357
630.396,59.88167,      -7.98404
630.913,59.93333,      -7.98470
631.425,59.98500,      -7.98536
631.944,60.03667,      -7.98612
632.458,60.08833,      -7.98679
632.98,60.14000,      -7.98734
633.494,60.19167,      -7.98780
634.013,60.24333,      -7.98836
634.531,60.29500,      -7.98872
635.048,60.34667,      -7.98929
635.562,60.39833,      -7.98995
636.079,60.45000,      -7.99041
636.598,60.50167,      -7.99117
637.116,60.55333,      -7.99163
637.63,60.60500,      -7.99219
638.15,60.65667,      -7.99305
638.665,60.70833,      -7.99371
639.183,60.76000,      -7.99417
639.695,60.81167,      -7.99463
640.213,60.86333,      -7.99529
640.729,60.91500,      -7.99605
641.239,60.96667,      -7.99661
641.756,61.01833,      -7.99737
642.271,61.07000,      -7.99783
642.788,61.12167,      -7.99858
643.304,61.17333,      -7.99934
643.823,61.22500,      -7.99990
644.335,61.27667,      -8.00076
644.856,61.32833,      -8.00121
645.371,61.38000,      -8.00157
645.888,61.43167,      -8.00213
646.404,61.48333,      -8.00269
646.922,61.53500,      -8.00335
647.438,61.58667,      -8.00390
647.957,61.63833,      -8.00436
648.476,61.69000,      -8.00501
648.993,61.74167,      -8.00547
649.503,61.79333,      -8.00593
650.017,61.84500,      -8.00669
650.53,61.89667,      -8.00755
651.044,61.94833,      -8.00821
651.562,62.00000,      -8.00886
652.082,62.05167,      -8.00952
652.599,62.10333,      -8.00997
653.118,62.15500,      -8.01042
653.638,62.20667,      -8.01098
654.15,62.25833,      -8.01154
654.664,62.31000,      -8.01230
655.179,62.36167,      -8.01275
655.697,62.41333,      -8.01341
656.214,62.46500,      -8.01406
656.731,62.51667,      -8.01472
657.247,62.56833,      -8.01527
657.764,62.62000,      -8.01563
658.283,62.67167,      -8.01618
658.798,62.72333,      -8.01664
659.312,62.77500,      -8.01710
659.829,62.82667,      -8.01755
660.344,62.87833,      -8.01790
660.863,62.93000,      -8.01845
661.376,62.98167,      -8.01891
661.894,63.03333,      -8.01946
662.412,63.08500,      -8.01982
662.929,63.13667,      -8.02037
663.445,63.18833,      -8.02083
663.958,63.24000,      -8.02128
664.475,63.29167,      -8.02223
664.991,63.34333,      -8.02299
665.505,63.39500,      -8.02374
666.019,63.44667,      -8.02430
666.535,63.49833,      -8.02495
667.049,63.55000,      -8.02541
667.567,63.60167,      -8.02586
668.083,63.65333,      -8.02641
668.598,63.70500,      -8.02686
669.119,63.75667,      -8.02731
669.635,63.80833,      -8.02757
670.153,63.86000,      -8.02832
670.669,63.91167,      -8.02877
671.189,63.96333,      -8.02932
671.708,64.01500,      -8.02987
672.225,64.06667,      -8.03032
672.74,64.11833,      -8.03078
673.259,64.17000,      -8.03123
673.773,64.22167,      -8.03188
674.286,64.27333,      -8.03224
674.805,64.32500,      -8.03279
675.321,64.37667,      -8.03334
675.839,64.42833,      -8.03379
676.355,64.48000,      -8.03414
676.879,64.53167,      -8.03458
677.395,64.58333,      -8.03534
677.91,64.63500,      -8.03579
678.426,64.68667,      -8.03654
678.941,64.73833,      -8.03700
679.452,64.79000,      -8.03765
679.966,64.84167,      -8.03820
680.484,64.89333,      -8.03885
681,64.94500,      -8.03940
681.517,64.99667,      -8.03985
682.033,65.04833,      -8.04040
682.554,65.10000,      -8.04075
683.071,65.15167,      -8.04120
683.586,65.20333,      -8.04145
684.106,65.25500,      -8.04190
684.621,65.30667,      -8.04225
685.139,65.35833,      -8.04270
685.657,65.41000,      -8.04315
686.175,65.46167,      -8.04369
686.693,65.51333,      -8.04424
687.212,65.56500,      -8.04489
687.729,65.61667,      -8.04534
688.246,65.66833,      -8.04609
688.76,65.72000,      -8.04674
689.275,65.77167,      -8.04709
689.79,65.82333,      -8.04735
690.306,65.87500,      -8.04769
690.825,65.92667,      -8.04834
691.344,65.97833,      -8.04869
691.861,66.03000,      -8.04914
692.377,66.08167,      -8.04959
692.893,66.13333,      -8.05023
693.411,66.18500,      -8.05078
693.928,66.23667,      -8.05123
694.442,66.28833,      -8.05148
694.958,66.34000,      -8.05193
695.474,66.39167,      -8.05258
695.99,66.44333,      -8.05303
696.51,66.49500,      -8.05347
697.026,66.54667,      -8.05402
697.546,66.59833,      -8.05437
698.06,66.65000,      -8.05472
698.571,66.70167,      -8.05507
699.092,66.75333,      -8.05541
699.61,66.80500,      -8.05556
700.126,66.85667,      -8.05591
700.643,66.90833,      -8.05666
701.157,66.96000,      -8.05731
701.673,67.01167,      -8.05785
702.19,67.06333,      -8.05830
702.703,67.11500,      -8.05895
703.224,67.16667,      -8.05939
703.74,67.21833,      -8.05974
704.257,67.27000,      -8.06009
704.771,67.32167,      -8.06054
705.29,67.37333,      -8.06119
705.807,67.42500,      -8.06213
706.32,67.47667,      -8.06298
706.837,67.52833,      -8.06373
707.358,67.58000,      -8.06408
707.872,67.63167,      -8.06442
708.388,67.68333,      -8.06477
708.904,67.73500,      -8.06512
709.419,67.78667,      -8.06557
709.937,67.83833,      -8.06622
710.457,67.89000,      -8.06666
710.975,67.94167,      -8.06701
711.492,67.99333,      -8.06736
712.004,68.04500,      -8.06781
712.52,68.09667,      -8.06815
713.036,68.14833,      -8.06830
713.553,68.20000,      -8.06865
714.071,68.25167,      -8.06980
714.585,68.30333,      -8.07104
715.102,68.35500,      -8.07139
715.617,68.40667,      -8.07204
716.135,68.45833,      -8.07368
716.652,68.51000,      -8.07493
717.17,68.56167,      -8.07518
717.689,68.61333,      -8.07502
718.202,68.66500,      -8.07507
718.717,68.71667,      -8.07492
719.233,68.76833,      -8.07467
719.75,68.82000,      -8.07451
720.266,68.87167,      -8.07486
720.783,68.92333,      -8.07581
721.299,68.97500,      -8.07695
721.816,69.02667,      -8.07790
722.329,69.07833,      -8.07855
722.846,69.13000,      -8.07889
723.363,69.18167,      -8.07894
723.882,69.23333,      -8.07909
724.397,69.28500,      -8.07943
724.914,69.33667,      -8.07978
725.431,69.38833,      -8.08032
725.946,69.44000,      -8.08097
726.464,69.49167,      -8.08152
726.978,69.54333,      -8.08216
727.495,69.59500,      -8.08261
728.016,69.64667,      -8.08295
728.535,69.69833,      -8.08319
729.052,69.75000,      -8.08334
729.566,69.80167,      -8.08369
730.078,69.85333,      -8.08444
730.59,69.90500,      -8.08539
731.108,69.95667,      -8.08693
731.624,70.00833,      -8.08877
732.144,70.06000,      -8.08972
732.663,70.11167,      -8.08976
733.182,70.16333,      -8.09000
733.7,70.21500,      -8.09025
734.214,70.26667,      -8.09049
734.733,70.31833,      -8.09044
735.248,70.37000,      -8.08988
735.769,70.42167,      -8.08902
736.282,70.47333,      -8.08837
736.802,70.52500,      -8.08821
737.318,70.57667,      -8.08836
737.832,70.62833,      -8.08890
738.347,70.68000,      -8.08945
738.863,70.73167,      -8.08959
739.379,70.78333,      -8.09164
739.896,70.83500,      -8.09408
740.407,70.88667,      -8.09543
740.925,70.93833,      -8.09577
741.438,70.99000,      -8.09591
741.954,71.04167,      -8.09646
742.472,71.09333,      -8.09650
742.993,71.14500,      -8.09564
743.511,71.19667,      -8.09518
744.029,71.24833,      -8.09532
744.544,71.30000,      -8.09586
745.06,71.35167,      -8.09701
745.573,71.40333,      -8.09815
746.091,71.45500,      -8.09899
746.606,71.50667,      -8.09944
747.123,71.55833,      -8.10008
747.639,71.61000,      -8.10072
748.154,71.66167,      -8.10146
748.67,71.71333,      -8.10180
749.185,71.76500,      -8.10214
749.701,71.81667,      -8.10249
750.218,71.86833,      -8.10272
750.733,71.92000,      -8.10267
751.249,71.97167,      -8.10281
751.771,72.02333,      -8.10294
752.287,72.07500,      -8.10318
752.804,72.12667,      -8.10332
753.324,72.17833,      -8.10296
753.837,72.23000,      -8.10280
754.356,72.28167,      -8.10344
754.872,72.33333,      -8.10388
755.388,72.38500,      -8.10422
755.905,72.43667,      -8.10456
756.422,72.48833,      -8.10490
756.939,72.54000,      -8.10554
757.452,72.59167,      -8.10608
757.969,72.64333,      -8.10682
758.484,72.69500,      -8.10766
758.999,72.74667,      -8.10850
759.516,72.79833,      -8.10943
760.034,72.85000,      -8.11057
760.548,72.90167,      -8.11151
761.066,72.95333,      -8.11235
761.582,73.00500,      -8.11328
762.1,73.05667,      -8.11402
762.614,73.10833,      -8.11486
763.129,73.16000,      -8.11570
763.647,73.21167,      -8.11643
764.164,73.26333,      -8.11757
764.677,73.31500,      -8.11830
765.192,73.36667,      -8.11874
765.706,73.41833,      -8.11898
766.222,73.47000,      -8.11911
766.737,73.52167,      -8.11925
767.252,73.57333,      -8.11928
767.77,73.62500,      -8.11922
768.285,73.67667,      -8.11945
768.803,73.72833,      -8.11959
769.323,73.78000,      -8.11992
769.841,73.83167,      -8.12025
770.357,73.88333,      -8.12049
770.872,73.93500,      -8.12072
771.389,73.98667,      -8.12106
771.905,74.03833,      -8.12139
772.42,74.09000,      -8.12212
772.938,74.14167,      -8.12266
773.451,74.19333,      -8.12309
773.969,74.24500,      -8.12362
774.488,74.29667,      -8.12395
775.005,74.34833,      -8.12388
775.522,74.40000,      -8.12412
776.041,74.45167,      -8.12424
776.555,74.50333,      -8.12438
777.072,74.55500,      -8.12461
777.585,74.60667,      -8.12504
778.104,74.65833,      -8.12537
778.625,74.71000,      -8.12570
779.14,74.76167,      -8.12603
779.657,74.81333,      -8.12636
780.175,74.86500,      -8.12679
780.689,74.91667,      -8.12722
781.208,74.96833,      -8.12785
781.723,75.02000,      -8.12858
782.243,75.07167,      -8.12900
782.76,75.12333,      -8.12943
783.279,75.17500,      -8.12976
783.796,75.22667,      -8.13019
784.312,75.27833,      -8.13092
784.827,75.33000,      -8.13134
785.343,75.38167,      -8.13197
785.858,75.43333,      -8.13230
786.376,75.48500,      -8.13253
786.892,75.53667,      -8.13285
787.409,75.58833,      -8.13318
787.926,75.64000,      -8.13360
788.445,75.69167,      -8.13403
788.958,75.74333,      -8.13436
789.476,75.79500,      -8.13428
789.993,75.84667,      -8.13450
790.51,75.89833,      -8.13463
791.025,75.95000,      -8.13465
791.544,76.00167,      -8.13488
792.061,76.05333,      -8.13530
792.577,76.10500,      -8.13552
793.095,76.15667,      -8.13605
793.61,76.20833,      -8.13657
794.125,76.26000,      -8.13689
794.645,76.31167,      -8.13721
795.159,76.36333,      -8.13754
795.679,76.41500,      -8.13786
796.194,76.46667,      -8.13828
796.712,76.51833,      -8.13860
797.231,76.57000,      -8.13892
797.75,76.62167,      -8.13964
798.268,76.67333,      -8.14016
798.784,76.72500,      -8.14078
799.303,76.77667,      -8.14110
799.401,76.78667,      -8.14116