File: data-raw/TGA/NN_TGA.csv
#EXPORTTYPE:                 ,DATA SINGLE
#FILE:                       ,NN.ngb-st9
#FORMAT:                     ,NETZSCH5
#FTYPE:                      ,ANSI
#IDENTITY:                   ,Saras
#DECIMAL:                    ,POINT
#SEPARATOR:                  ,COMMA
#MTYPE:                      ,TG
#INSTRUMENT:                 ,NETZSCH TG 209F1 Libra
#PROJECT:                    ,IL
#DATE/TIME:                  ,21/03/2017 2:49:23 PM (UTC+11)
#CORR. FILE:                 ,
#TEMPCAL:                    ,TCALZERO.TCX
#LABORATORY:                 ,Capture Lab
#OPERATOR:                   ,NJN
#REMARK:                     ,Training run
#SAMPLE:                     ,NN
#SAMPLE MASS /mg:            ,17.6340
#MATERIAL:                   ,zeolite
#TYPE OF CRUCIBLE:           ,Al2O3
#SAMPLE CRUCIBLE MASS /mg:   ,311.1824
#REFERENCE CRUCIBLE MASS /mg:,
#M.RANGE /mg:                ,2000
#CORR. CODE:                 ,090
#RANGE:                      ,32°C/10.0(K/min)/800°C
#SEGMENT:                    ,S1/1
#SEG. 1:                     ,32°C/10.0(K/min)/800°C

##Temp./°C,Time/min,Mass loss/mg
 32.37200, 0.00000,-2.510991e-003
 32.36400, 0.05167,-4.169705e-003
 32.41100, 0.10333,-5.948274e-003
 32.69800, 0.15500,-5.689017e-003
 33.05100, 0.20667,-5.732100e-003
 33.37200, 0.25833,-7.032272e-003
 33.69800, 0.31000,-8.436426e-003
 34.06400, 0.36167,-1.011488e-002
 34.46500, 0.41333,-1.158682e-002
 34.89800, 0.46500,-1.341102e-002
 35.35100, 0.51667,-1.555144e-002
 35.83100, 0.56833,-1.757675e-002
 36.34200, 0.62000,-1.984914e-002
 36.87900, 0.67167,-2.238572e-002
 37.43000, 0.72333,-2.550806e-002
 38.00600, 0.77500,-2.879491e-002
 38.60000, 0.82667,-3.235246e-002
 39.20200, 0.87833,-3.571412e-002
 39.81500, 0.93000,-3.953933e-002
 40.43700, 0.98167,-4.297735e-002
 41.06400, 1.03333,-4.676417e-002
 41.69500, 1.08500,-5.058782e-002
 42.32200, 1.13667,-5.413843e-002
 42.95100, 1.18833,-5.834358e-002
 43.57300, 1.24000,-6.280499e-002
 44.19200, 1.29167,-6.741149e-002
 44.80900, 1.34333,-7.212019e-002
 45.41300, 1.39500,-7.736196e-002
 46.01300, 1.44667,-8.250270e-002
 46.60400, 1.49833,-8.791194e-002
 47.18300, 1.55000,-9.358149e-002
 47.75500, 1.60167,-9.966708e-002
 48.31700, 1.65333,      -0.10583
 48.87000, 1.70500,      -0.11170
 49.42100, 1.75667,      -0.11802
 49.96300, 1.80833,      -0.12442
 50.49500, 1.86000,      -0.13111
 51.02300, 1.91167,      -0.13760
 51.54400, 1.96333,      -0.14463
 52.06200, 2.01500,      -0.15206
 52.56900, 2.06667,      -0.15928
 53.08200, 2.11833,      -0.16724
 53.58800, 2.17000,      -0.17442
 54.09200, 2.22167,      -0.18189
 54.58900, 2.27333,      -0.18995
 55.09000, 2.32500,      -0.19895
 55.58700, 2.37667,      -0.20686
 56.08800, 2.42833,      -0.21528
 56.58800, 2.48000,      -0.22332
 57.08800, 2.53167,      -0.23206
 57.59000, 2.58333,      -0.24109
 58.09100, 2.63500,      -0.24953
 58.59300, 2.68667,      -0.25889
 59.09700, 2.73833,      -0.26773
 59.60300, 2.79000,      -0.27759
 60.11200, 2.84167,      -0.28675
 60.62000, 2.89333,      -0.29660
 61.12900, 2.94500,      -0.30594
 61.64000, 2.99667,      -0.31580
 62.15200, 3.04833,      -0.32605
 62.66700, 3.10000,      -0.33560
 63.18500, 3.15167,      -0.34635
 63.69900, 3.20333,      -0.35599
 64.21600, 3.25500,      -0.36623
 64.73500, 3.30667,      -0.37658
 65.25400, 3.35833,      -0.38750
 65.77700, 3.41000,      -0.39775
 66.29600, 3.46167,      -0.40879
 66.81900, 3.51333,      -0.41972
 67.34000, 3.56500,      -0.43013
 67.86000, 3.61667,      -0.44123
 68.38200, 3.66833,      -0.45196
 68.90400, 3.72000,      -0.46318
 69.42500, 3.77167,      -0.47380
 69.94600, 3.82333,      -0.48520
 70.46800, 3.87500,      -0.49551
 70.99000, 3.92667,      -0.50692
 71.51000, 3.97833,      -0.51804
 72.02800, 4.03000,      -0.52853
 72.54700, 4.08167,      -0.53993
 73.07000, 4.13333,      -0.54996
 73.59100, 4.18500,      -0.56175
 74.10900, 4.23667,      -0.57275
 74.63100, 4.28833,      -0.58387
 75.14800, 4.34000,      -0.59455
 75.66900, 4.39167,      -0.60576
 76.19100, 4.44333,      -0.61707
 76.71100, 4.49500,      -0.62758
 77.22800, 4.54667,      -0.63836
 77.74800, 4.59833,      -0.64877
 78.26500, 4.65000,      -0.65927
 78.78500, 4.70167,      -0.66937
 79.30300, 4.75333,      -0.67977
 79.82300, 4.80500,      -0.69037
 80.33800, 4.85667,      -0.70025
 80.85400, 4.90833,      -0.71044
 81.37600, 4.96000,      -0.71996
 81.89400, 5.01167,      -0.72996
 82.41200, 5.06333,      -0.73935
 82.93300, 5.11500,      -0.74925
 83.44700, 5.16667,      -0.75803
 83.96400, 5.21833,      -0.76783
 84.48000, 5.27000,      -0.77732
 84.99800, 5.32167,      -0.78603
 85.51600, 5.37333,      -0.79551
 86.03500, 5.42500,      -0.80392
 86.55200, 5.47667,      -0.81240
 87.07100, 5.52833,      -0.82070
 87.58600, 5.58000,      -0.82930
 88.10400, 5.63167,      -0.83719
 88.62400, 5.68333,      -0.84540
 89.14000, 5.73500,      -0.85379
 89.65700, 5.78667,      -0.86118
 90.17700, 5.83833,      -0.86867
 90.69100, 5.89000,      -0.87526
 91.20700, 5.94167,      -0.88323
 91.73000, 5.99333,      -0.89085
 92.24900, 6.04500,      -0.89795
 92.76600, 6.09667,      -0.90475
 93.28800, 6.14833,      -0.91184
 93.80600, 6.20000,      -0.91863
 94.32200, 6.25167,      -0.92511
 94.83600, 6.30333,      -0.93159
 95.35700, 6.35500,      -0.93780
 95.87100, 6.40667,      -0.94408
 96.39000, 6.45833,      -0.94957
 96.90500, 6.51000,      -0.95536
 97.42300, 6.56167,      -0.96105
 97.93800, 6.61333,      -0.96683
 98.45800, 6.66500,      -0.97234
 98.97500, 6.71667,      -0.97762
 99.49100, 6.76833,      -0.98311
100.005, 6.82000,      -0.98809
100.52, 6.87167,      -0.99330
101.036, 6.92333,      -0.99802
101.555, 6.97500,      -1.00275
102.069, 7.02667,      -1.00766
102.587, 7.07833,      -1.01227
103.1, 7.13000,      -1.01687
103.618, 7.18167,      -1.02129
104.133, 7.23333,      -1.02589
104.648, 7.28500,      -1.03019
105.168, 7.33667,      -1.03461
105.684, 7.38833,      -1.03831
106.202, 7.44000,      -1.04172
106.716, 7.49167,      -1.04511
107.232, 7.54333,      -1.04861
107.749, 7.59500,      -1.05211
108.265, 7.64667,      -1.05530
108.782, 7.69833,      -1.05840
109.298, 7.75000,      -1.06179
109.814, 7.80167,      -1.06529
110.327, 7.85333,      -1.06828
110.844, 7.90500,      -1.07137
111.362, 7.95667,      -1.07426
111.878, 8.00833,      -1.07765
112.389, 8.06000,      -1.08063
112.907, 8.11167,      -1.08311
113.421, 8.16333,      -1.08550
113.938, 8.21500,      -1.08808
114.454, 8.26667,      -1.09067
114.971, 8.31833,      -1.09306
115.488, 8.37000,      -1.09565
116.003, 8.42167,      -1.09792
116.519, 8.47333,      -1.10040
117.034, 8.52500,      -1.10257
117.549, 8.57667,      -1.10435
118.061, 8.62833,      -1.10651
118.579, 8.68000,      -1.10859
119.096, 8.73167,      -1.11097
119.611, 8.78333,      -1.11284
120.128, 8.83500,      -1.11522
120.645, 8.88667,      -1.11729
121.16, 8.93833,      -1.11946
121.675, 8.99000,      -1.12144
122.191, 9.04167,      -1.12359
122.707, 9.09333,      -1.12556
123.223, 9.14500,      -1.12773
123.738, 9.19667,      -1.12970
124.255, 9.24833,      -1.13206
124.77, 9.30000,      -1.13402
125.284, 9.35167,      -1.13598
125.803, 9.40333,      -1.13835
126.32, 9.45500,      -1.14082
126.838, 9.50667,      -1.14288
127.354, 9.55833,      -1.14494
127.87, 9.61000,      -1.14689
128.386, 9.66167,      -1.14915
128.902, 9.71333,      -1.15120
129.422, 9.76500,      -1.15287
129.939, 9.81667,      -1.15482
130.454, 9.86833,      -1.15747
130.966, 9.92000,      -1.16021
131.487, 9.97167,      -1.16207
132.003,10.02333,      -1.16413
132.521,10.07500,      -1.16679
133.038,10.12667,      -1.16894
133.554,10.17833,      -1.17128
134.069,10.23000,      -1.17383
134.587,10.28167,      -1.17608
135.103,10.33333,      -1.17863
135.619,10.38500,      -1.18097
136.139,10.43667,      -1.18312
136.655,10.48833,      -1.18597
137.174,10.54000,      -1.18842
137.687,10.59167,      -1.19075
138.208,10.64333,      -1.19330
138.726,10.69500,      -1.19615
139.241,10.74667,      -1.19879
139.758,10.79833,      -1.20133
140.272,10.85000,      -1.20397
140.792,10.90167,      -1.20651
141.31,10.95333,      -1.20905
141.828,11.00500,      -1.21159
142.34,11.05667,      -1.21392
142.858,11.10833,      -1.21697
143.378,11.16000,      -1.21971
143.89,11.21167,      -1.22284
144.409,11.26333,      -1.22658
144.925,11.31500,      -1.22992
145.445,11.36667,      -1.23286
145.96,11.41833,      -1.23579
146.48,11.47000,      -1.23843
146.994,11.52167,      -1.24126
147.514,11.57333,      -1.24410
148.03,11.62500,      -1.24723
148.548,11.67667,      -1.24967
149.065,11.72833,      -1.25360
149.582,11.78000,      -1.25713
150.098,11.83167,      -1.26036
150.618,11.88333,      -1.26370
151.136,11.93500,      -1.26623
151.652,11.98667,      -1.26926
152.168,12.03833,      -1.27229
152.688,12.09000,      -1.27513
153.209,12.14167,      -1.27756
153.726,12.19333,      -1.28049
154.244,12.24500,      -1.28342
154.763,12.29667,      -1.28585
155.283,12.34833,      -1.28838
155.803,12.40000,      -1.29071
156.324,12.45167,      -1.29294
156.841,12.50333,      -1.29517
157.354,12.55500,      -1.29758
157.872,12.60667,      -1.29991
158.39,12.65833,      -1.30184
158.907,12.71000,      -1.30377
159.423,12.76167,      -1.30579
159.939,12.81333,      -1.30792
160.451,12.86500,      -1.30993
160.971,12.91667,      -1.31207
161.486,12.96833,      -1.31390
162.002,13.02000,      -1.31532
162.518,13.07167,      -1.31755
163.034,13.12333,      -1.31998
163.55,13.17500,      -1.32240
164.065,13.22667,      -1.32453
164.583,13.27833,      -1.32676
165.097,13.33000,      -1.32888
165.612,13.38167,      -1.33121
166.125,13.43333,      -1.33313
166.642,13.48500,      -1.33516
167.158,13.53667,      -1.33739
167.67,13.58833,      -1.34011
168.184,13.64000,      -1.34273
168.698,13.69167,      -1.34486
169.213,13.74333,      -1.34729
169.73,13.79500,      -1.34972
170.248,13.84667,      -1.35215
170.761,13.89833,      -1.35417
171.278,13.95000,      -1.35680
171.796,14.00167,      -1.35903
172.309,14.05333,      -1.36196
172.827,14.10500,      -1.36438
173.346,14.15667,      -1.36711
173.861,14.20833,      -1.37013
174.379,14.26000,      -1.37286
174.896,14.31167,      -1.37529
175.415,14.36333,      -1.37772
175.93,14.41500,      -1.38035
176.446,14.46667,      -1.38287
176.965,14.51833,      -1.38600
177.484,14.57000,      -1.38893
177.999,14.62167,      -1.39186
178.517,14.67333,      -1.39479
179.032,14.72500,      -1.39751
179.551,14.77667,      -1.40064
180.069,14.82833,      -1.40357
180.585,14.88000,      -1.40650
181.102,14.93167,      -1.40922
181.616,14.98333,      -1.41245
182.134,15.03500,      -1.41549
182.648,15.08667,      -1.41841
183.169,15.13833,      -1.42165
183.684,15.19000,      -1.42458
184.202,15.24167,      -1.42761
184.719,15.29333,      -1.43094
185.237,15.34500,      -1.43417
185.754,15.39667,      -1.43710
186.272,15.44833,      -1.44004
186.789,15.50000,      -1.44297
187.306,15.55167,      -1.44620
187.821,15.60333,      -1.44973
188.336,15.65500,      -1.45266
188.855,15.70667,      -1.45610
189.371,15.75833,      -1.45933
189.885,15.81000,      -1.46287
190.407,15.86167,      -1.46601
190.92,15.91333,      -1.46964
191.437,15.96500,      -1.47337
191.952,16.01667,      -1.47702
192.472,16.06833,      -1.48055
192.986,16.12000,      -1.48369
193.503,16.17167,      -1.48743
194.019,16.22333,      -1.49096
194.536,16.27500,      -1.49531
195.052,16.32667,      -1.49864
195.57,16.37833,      -1.50239
196.084,16.43000,      -1.50652
196.603,16.48167,      -1.51027
197.12,16.53333,      -1.51401
197.634,16.58500,      -1.51745
198.154,16.63667,      -1.52260
198.67,16.68833,      -1.52694
199.186,16.74000,      -1.53138
199.702,16.79167,      -1.53543
200.217,16.84333,      -1.53937
200.732,16.89500,      -1.54372
201.252,16.94667,      -1.54807
201.769,16.99833,      -1.55251
202.288,17.05000,      -1.55706
202.798,17.10167,      -1.56210
203.318,17.15333,      -1.56675
203.833,17.20500,      -1.57150
204.352,17.25667,      -1.57665
204.87,17.30833,      -1.58159
205.387,17.36000,      -1.58654
205.904,17.41167,      -1.59129
206.421,17.46333,      -1.59694
206.937,17.51500,      -1.60248
207.451,17.56667,      -1.60803
207.969,17.61833,      -1.61347
208.485,17.67000,      -1.61922
208.999,17.72167,      -1.62517
209.52,17.77333,      -1.63092
210.036,17.82500,      -1.63707
210.554,17.87667,      -1.64302
211.067,17.92833,      -1.64946
211.583,17.98000,      -1.65561
212.102,18.03167,      -1.66237
212.618,18.08333,      -1.66861
213.134,18.13500,      -1.67626
213.65,18.18667,      -1.68351
214.168,18.23833,      -1.69026
214.686,18.29000,      -1.69781
215.204,18.34167,      -1.70516
215.717,18.39333,      -1.71331
216.237,18.44500,      -1.72066
216.754,18.49667,      -1.72861
217.271,18.54833,      -1.73656
217.79,18.60000,      -1.74511
218.304,18.65167,      -1.75406
218.823,18.70333,      -1.76271
219.339,18.75500,      -1.77176
219.854,18.80667,      -1.78061
220.37,18.85833,      -1.79026
220.885,18.91000,      -1.79931
221.404,18.96167,      -1.80946
221.922,19.01333,      -1.81911
222.439,19.06500,      -1.82966
222.954,19.11667,      -1.84051
223.471,19.16833,      -1.85146
223.989,19.22000,      -1.86251
224.507,19.27167,      -1.87326
225.022,19.32333,      -1.88491
225.537,19.37500,      -1.89567
226.055,19.42667,      -1.90762
226.572,19.47833,      -1.91897
227.087,19.53000,      -1.93202
227.607,19.58167,      -1.94497
228.123,19.63333,      -1.95712
228.639,19.68500,      -1.97057
229.155,19.73667,      -1.98292
229.67,19.78833,      -1.99688
230.187,19.84000,      -2.00983
230.704,19.89167,      -2.03688
231.218,19.94333,      -2.04623
231.736,19.99500,      -2.05868
232.251,20.04667,      -2.08373
232.768,20.09833,      -2.09319
233.285,20.15000,      -2.10494
233.805,20.20167,      -2.11749
234.317,20.25333,      -2.14424
234.837,20.30500,      -2.15440
235.354,20.35667,      -2.17835
235.869,20.40833,      -2.19470
236.384,20.46000,      -2.20785
236.9,20.51167,      -2.22680
237.418,20.56333,      -2.23826
237.935,20.61500,      -2.26421
238.452,20.66667,      -2.28246
238.965,20.71833,      -2.29911
239.483,20.77000,      -2.31806
239.996,20.82167,      -2.33751
240.516,20.87333,      -2.35567
241.031,20.92500,      -2.37582
241.548,20.97667,      -2.39507
242.066,21.02833,      -2.41453
242.584,21.08000,      -2.43468
243.101,21.13167,      -2.45463
243.617,21.18333,      -2.47538
244.13,21.23500,      -2.49553
244.644,21.28667,      -2.51708
245.164,21.33833,      -2.53804
245.68,21.39000,      -2.56039
246.197,21.44167,      -2.58264
246.711,21.49333,      -2.60359
247.231,21.54500,      -2.62615
247.748,21.59667,      -2.64810
248.266,21.64833,      -2.67115
248.781,21.70000,      -2.69360
249.3,21.75167,      -2.71746
249.816,21.80333,      -2.74031
250.331,21.85500,      -2.76456
250.853,21.90667,      -2.78841
251.366,21.95833,      -2.81186
251.883,22.01000,      -2.83682
252.404,22.06167,      -2.86057
252.917,22.11333,      -2.88572
253.435,22.16500,      -2.90957
253.952,22.21667,      -2.93542
254.467,22.26833,      -2.96157
254.982,22.32000,      -2.98633
255.496,22.37167,      -3.01258
256.013,22.42333,      -3.03773
256.529,22.47500,      -3.06438
257.047,22.52667,      -3.08983
257.563,22.57833,      -3.11718
258.08,22.63000,      -3.14264
258.595,22.68167,      -3.16949
259.111,22.73333,      -3.19514
259.625,22.78500,      -3.22269
260.146,22.83667,      -3.25034
260.66,22.88833,      -3.27649
261.177,22.94000,      -3.30444
261.694,22.99167,      -3.33069
262.211,23.04333,      -3.35924
262.729,23.09500,      -3.38630
263.246,23.14667,      -3.41455
263.763,23.19833,      -3.44150
264.279,23.25000,      -3.46975
264.795,23.30167,      -3.49910
265.312,23.35333,      -3.52595
265.83,23.40500,      -3.55490
266.346,23.45667,      -3.58255
266.863,23.50833,      -3.61180
267.379,23.56000,      -3.63885
267.898,23.61167,      -3.66840
268.41,23.66333,      -3.69555
268.927,23.71500,      -3.72460
269.442,23.76667,      -3.75375
269.957,23.81833,      -3.78420
270.472,23.87000,      -3.81265
270.991,23.92167,      -3.84000
271.507,23.97333,      -3.86974
272.024,24.02500,      -3.89789
272.54,24.07667,      -3.92824
273.056,24.12833,      -3.95659
273.572,24.18000,      -3.98664
274.089,24.23167,      -4.01659
274.604,24.28333,      -4.04444
275.123,24.33500,      -4.07469
275.637,24.38667,      -4.10263
276.156,24.43833,      -4.13298
276.67,24.49000,      -4.16103
277.186,24.54167,      -4.19138
277.702,24.59333,      -4.22023
278.219,24.64500,      -4.25087
278.735,24.69667,      -4.28082
279.251,24.74833,      -4.30907
279.767,24.80000,      -4.33992
280.283,24.85167,      -4.36856
280.801,24.90333,      -4.39831
281.327,24.95500,      -4.42696
281.844,25.00667,      -4.45730
282.363,25.05833,      -4.48645
282.889,25.11000,      -4.51760
283.416,25.16167,      -4.54834
283.93,25.21333,      -4.57709
284.442,25.26500,      -4.60753
284.948,25.31667,      -4.63608
285.46,25.36833,      -4.66732
285.972,25.42000,      -4.69577
286.489,25.47167,      -4.72672
287,25.52333,      -4.75566
287.51,25.57500,      -4.78641
288.028,25.62667,      -4.81825
288.548,25.67833,      -4.84750
289.061,25.73000,      -4.87824
289.579,25.78167,      -4.90758
290.094,25.83333,      -4.93863
290.607,25.88500,      -4.96827
291.125,25.93667,      -5.00002
291.643,25.98833,      -5.03166
292.158,26.04000,      -5.06130
292.675,26.09167,      -5.09355
293.191,26.14333,      -5.12409
293.708,26.19500,      -5.15613
294.222,26.24667,      -5.18657
294.742,26.29833,      -5.21862
295.255,26.35000,      -5.24926
295.775,26.40167,      -5.28180
296.288,26.45333,      -5.31314
296.809,26.50500,      -5.34628
297.321,26.55667,      -5.38002
297.84,26.60833,      -5.41147
298.354,26.66000,      -5.44521
298.874,26.71167,      -5.47715
299.393,26.76333,      -5.51179
299.91,26.81500,      -5.54443
300.426,26.86667,      -5.57927
300.942,26.91833,      -5.61241
301.46,26.97000,      -5.64785
301.976,27.02167,      -5.68429
302.491,27.07333,      -5.71853
303.007,27.12500,      -5.75507
303.522,27.17667,      -5.78961
304.043,27.22833,      -5.82695
304.559,27.28000,      -5.86239
305.077,27.33167,      -5.90073
305.596,27.38333,      -5.93687
306.113,27.43500,      -5.97601
306.628,27.48667,      -6.01525
307.146,27.53833,      -6.05309
307.661,27.59000,      -6.09393
308.178,27.64167,      -6.13257
308.694,27.69333,      -6.17441
309.21,27.74500,      -6.21385
309.726,27.79667,      -6.25719
310.238,27.84833,      -6.30063
310.757,27.90000,      -6.34227
311.271,27.95167,      -6.38671
311.79,28.00333,      -6.42955
312.309,28.05500,      -6.47549
312.827,28.10667,      -6.51853
313.344,28.15833,      -6.56547
313.864,28.21000,      -6.61111
314.38,28.26167,      -6.66015
314.896,28.31333,      -6.70949
315.409,28.36500,      -6.75663
315.929,28.41667,      -6.80747
316.446,28.46833,      -6.85561
316.959,28.52000,      -6.90755
317.477,28.57167,      -6.95739
317.994,28.62333,      -7.01033
318.51,28.67500,      -7.06107
319.028,28.72667,      -7.11471
319.545,28.77833,      -7.16955
320.075,28.83000,      -7.22118
320.591,28.88167,      -7.27653
321.108,28.93333,      -7.32907
321.617,28.98500,      -7.38581
322.135,29.03667,      -7.43865
322.647,29.08833,      -7.49539
323.163,29.14000,      -7.54873
323.677,29.19167,      -7.60517
324.193,29.24333,      -7.66171
324.707,29.29500,      -7.71395
325.224,29.34667,      -7.77009
325.739,29.39833,      -7.82233
326.254,29.45000,      -7.87877
326.77,29.50167,      -7.93031
327.29,29.55333,      -7.98505
327.802,29.60500,      -8.03569
328.323,29.65667,      -8.08972
328.839,29.70833,      -8.14296
329.353,29.76000,      -8.19330
329.867,29.81167,      -8.24584
330.384,29.86333,      -8.29388
330.901,29.91500,      -8.34522
331.418,29.96667,      -8.39276
331.934,30.01833,      -8.44280
332.452,30.07000,      -8.48904
332.97,30.12167,      -8.53807
333.484,30.17333,      -8.58641
334.002,30.22500,      -8.63045
334.514,30.27667,      -8.67729
335.031,30.32833,      -8.72033
335.548,30.38000,      -8.76567
336.065,30.43167,      -8.80761
336.58,30.48333,      -8.85145
337.096,30.53500,      -8.89159
337.613,30.58667,      -8.93382
338.128,30.63833,      -8.97486
338.644,30.69000,      -9.01290
339.159,30.74167,      -9.05164
339.675,30.79333,      -9.08818
340.193,30.84500,      -9.12571
340.711,30.89667,      -9.16005
341.227,30.94833,      -9.19569
341.743,31.00000,      -9.22813
342.258,31.05167,      -9.26187
342.776,31.10333,      -9.29520
343.292,31.15500,      -9.32514
343.809,31.20667,      -9.35608
344.326,31.25833,      -9.38431
344.84,31.31000,      -9.41345
345.355,31.36167,      -9.44009
345.872,31.41333,      -9.46693
346.388,31.46500,      -9.49206
346.906,31.51667,      -9.51730
347.422,31.56833,      -9.54144
347.939,31.62000,      -9.56427
348.456,31.67167,      -9.58631
348.97,31.72333,      -9.60805
349.488,31.77500,      -9.62958
350.003,31.82667,      -9.64892
350.521,31.87833,      -9.66926
351.035,31.93000,      -9.68769
351.553,31.98167,      -9.70613
352.071,32.03333,      -9.72466
352.586,32.08500,      -9.74080
353.102,32.13667,      -9.75164
353.618,32.18833,      -9.77417
354.138,32.24000,      -9.78441
354.653,32.29167,      -9.79524
355.17,32.34333,      -9.81778
355.685,32.39500,      -9.82781
356.201,32.44667,      -9.84015
356.717,32.49833,      -9.85258
357.231,32.55000,      -9.87572
357.749,32.60167,      -9.88495
358.265,32.65333,      -9.89489
358.78,32.70500,      -9.90652
359.296,32.75667,      -9.91796
359.814,32.80833,      -9.93129
360.333,32.86000,      -9.94362
360.85,32.91167,      -9.95656
361.368,32.96333,      -9.96939
361.884,33.01500,      -9.98062
362.398,33.06667,      -9.99256
362.913,33.11833,     -10.00419
363.428,33.17000,     -10.01613
363.945,33.22167,     -10.02766
364.459,33.27333,     -10.03949
364.974,33.32500,     -10.05093
365.492,33.37667,     -10.06266
366.009,33.42833,     -10.07439
366.529,33.48000,     -10.08552
367.044,33.53167,     -10.09695
367.562,33.58333,     -10.10769
368.08,33.63500,     -10.11912
368.597,33.68667,     -10.12975
369.115,33.73833,     -10.14058
369.633,33.79000,     -10.15151
370.145,33.84167,     -10.16225
370.663,33.89333,     -10.17338
371.176,33.94500,     -10.18411
371.69,33.99667,     -10.19554
372.21,34.04833,     -10.20597
372.728,34.10000,     -10.21710
373.243,34.15167,     -10.22743
373.761,34.20333,     -10.23856
374.277,34.25500,     -10.24869
374.796,34.30667,     -10.25972
375.312,34.35833,     -10.27065
375.828,34.41000,     -10.28068
376.345,34.46167,     -10.29151
376.861,34.51333,     -10.30144
377.374,34.56500,     -10.31247
377.889,34.61667,     -10.32320
378.404,34.66833,     -10.33433
378.919,34.72000,     -10.34466
379.435,34.77167,     -10.35529
379.951,34.82333,     -10.36612
380.468,34.87500,     -10.37664
380.985,34.92667,     -10.38757
381.5,34.97833,     -10.39840
382.017,35.03000,     -10.40943
382.533,35.08167,     -10.41955
383.051,35.13333,     -10.43028
383.568,35.18500,     -10.44061
384.086,35.23667,     -10.45183
384.6,35.28833,     -10.46236
385.118,35.34000,     -10.47219
385.631,35.39167,     -10.48272
386.149,35.44333,     -10.49284
386.665,35.49500,     -10.50367
387.179,35.54667,     -10.51339
387.694,35.59833,     -10.52432
388.214,35.65000,     -10.53434
388.725,35.70167,     -10.54527
389.243,35.75333,     -10.55629
389.76,35.80500,     -10.56652
390.275,35.85667,     -10.57764
390.791,35.90833,     -10.58787
391.309,35.96000,     -10.59839
391.825,36.01167,     -10.60872
392.341,36.06333,     -10.61914
392.855,36.11500,     -10.62926
393.37,36.16667,     -10.63979
393.889,36.21833,     -10.65011
394.402,36.27000,     -10.66063
394.92,36.32167,     -10.67135
395.439,36.37333,     -10.68168
395.956,36.42500,     -10.69210
396.472,36.47667,     -10.70182
396.987,36.52833,     -10.71274
397.507,36.58000,     -10.72296
398.02,36.63167,     -10.73389
398.538,36.68333,     -10.74421
399.052,36.73500,     -10.75363
399.57,36.78667,     -10.76385
400.084,36.83833,     -10.77347
400.602,36.89000,     -10.78399
401.123,36.94167,     -10.79341
401.638,36.99333,     -10.80433
402.153,37.04500,     -10.81425
402.669,37.09667,     -10.82457
403.184,37.14833,     -10.83459
403.7,37.20000,     -10.84391
404.215,37.25167,     -10.85453
404.735,37.30333,     -10.86405
405.249,37.35500,     -10.87447
405.764,37.40667,     -10.88409
406.286,37.45833,     -10.89430
406.802,37.51000,     -10.90452
407.317,37.56167,     -10.91354
407.836,37.61333,     -10.92376
408.351,37.66500,     -10.93298
408.869,37.71667,     -10.94270
409.382,37.76833,     -10.95252
409.898,37.82000,     -10.96254
410.417,37.87167,     -10.97185
410.935,37.92333,     -10.98157
411.454,37.97500,     -10.99128
411.97,38.02667,     -11.00080
412.485,38.07833,     -11.01082
413.001,38.13000,     -11.01974
413.514,38.18167,     -11.02916
414.03,38.23333,     -11.03838
414.545,38.28500,     -11.04820
415.06,38.33667,     -11.05721
415.577,38.38833,     -11.06703
416.093,38.44000,     -11.07694
416.611,38.49167,     -11.08566
417.125,38.54333,     -11.09508
417.643,38.59500,     -11.10389
418.162,38.64667,     -11.11371
418.677,38.69833,     -11.12252
419.194,38.75000,     -11.13214
419.706,38.80167,     -11.14106
420.221,38.85333,     -11.15037
420.736,38.90500,     -11.15939
421.255,38.95667,     -11.16880
421.773,39.00833,     -11.17832
422.287,39.06000,     -11.18713
422.805,39.11167,     -11.19645
423.323,39.16333,     -11.20526
423.837,39.21500,     -11.21438
424.354,39.26667,     -11.22279
424.872,39.31833,     -11.23211
425.386,39.37000,     -11.24092
425.905,39.42167,     -11.25044
426.42,39.47333,     -11.25995
426.937,39.52500,     -11.26866
427.45,39.57667,     -11.27778
427.971,39.62833,     -11.28619
428.487,39.68000,     -11.29541
428.999,39.73167,     -11.30402
429.515,39.78333,     -11.31333
430.031,39.83500,     -11.32225
430.549,39.88667,     -11.33086
431.064,39.93833,     -11.33977
431.585,39.99000,     -11.34838
432.098,40.04167,     -11.35800
432.616,40.09333,     -11.36681
433.129,40.14500,     -11.37622
433.648,40.19667,     -11.38503
434.165,40.24833,     -11.39415
434.678,40.30000,     -11.40246
435.196,40.35167,     -11.41137
435.715,40.40333,     -11.42028
436.233,40.45500,     -11.42839
436.748,40.50667,     -11.43761
437.265,40.55833,     -11.44602
437.779,40.61000,     -11.45483
438.294,40.66167,     -11.46294
438.811,40.71333,     -11.47175
439.328,40.76500,     -11.48066
439.841,40.81667,     -11.48918
440.362,40.86833,     -11.49818
440.88,40.92000,     -11.50659
441.393,40.97167,     -11.51551
441.908,41.02333,     -11.52382
442.423,41.07500,     -11.53233
442.939,41.12667,     -11.54054
443.455,41.17833,     -11.54955
443.971,41.23000,     -11.55846
444.487,41.28167,     -11.56647
445.003,41.33333,     -11.57518
445.521,41.38500,     -11.58329
446.036,41.43667,     -11.59210
446.55,41.48833,     -11.60011
447.069,41.54000,     -11.60882
447.583,41.59167,     -11.61693
448.097,41.64333,     -11.62524
448.612,41.69500,     -11.63395
449.129,41.74667,     -11.64205
449.648,41.79833,     -11.65046
450.165,41.85000,     -11.65837
450.682,41.90167,     -11.66708
451.198,41.95333,     -11.67468
451.713,42.00500,     -11.68269
452.231,42.05667,     -11.69050
452.749,42.10833,     -11.69891
453.266,42.16000,     -11.70682
453.782,42.21167,     -11.71472
454.3,42.26333,     -11.72253
454.815,42.31500,     -11.72984
455.331,42.36667,     -11.73775
455.847,42.41833,     -11.74526
456.363,42.47000,     -11.75306
456.875,42.52167,     -11.76007
457.394,42.57333,     -11.76788
457.91,42.62500,     -11.77578
458.426,42.67667,     -11.78289
458.942,42.72833,     -11.79070
459.459,42.78000,     -11.79780
459.975,42.83167,     -11.80561
460.491,42.88333,     -11.81281
461.009,42.93500,     -11.82082
461.523,42.98667,     -11.82823
462.044,43.03833,     -11.83573
462.56,43.09000,     -11.84363
463.074,43.14167,     -11.85104
463.59,43.19333,     -11.85855
464.105,43.24500,     -11.86575
464.622,43.29667,     -11.87276
465.137,43.34833,     -11.88016
465.654,43.40000,     -11.88767
466.167,43.45167,     -11.89498
466.686,43.50333,     -11.90268
467.203,43.55500,     -11.91008
467.717,43.60667,     -11.91709
468.236,43.65833,     -11.92409
468.754,43.71000,     -11.93089
469.268,43.76167,     -11.93830
469.787,43.81333,     -11.94520
470.302,43.86500,     -11.95261
470.82,43.91667,     -11.95911
471.333,43.96833,     -11.96652
471.849,44.02000,     -11.97352
472.364,44.07167,     -11.98042
472.882,44.12333,     -11.98782
473.397,44.17500,     -11.99453
473.915,44.22667,     -12.00203
474.432,44.27833,     -12.00893
474.946,44.33000,     -12.01644
475.462,44.38167,     -12.02414
475.977,44.43333,     -12.03054
476.493,44.48500,     -12.03754
477.009,44.53667,     -12.04445
477.524,44.58833,     -12.05165
478.038,44.64000,     -12.05835
478.557,44.69167,     -12.06515
479.069,44.74333,     -12.07166
479.587,44.79500,     -12.07835
480.107,44.84667,     -12.08425
480.621,44.89833,     -12.09076
481.14,44.95000,     -12.09675
481.659,45.00167,     -12.10286
482.175,45.05333,     -12.10896
482.691,45.10500,     -12.11476
483.206,45.15667,     -12.12116
483.725,45.20833,     -12.12646
484.24,45.26000,     -12.13206
484.754,45.31167,     -12.13746
485.268,45.36333,     -12.14327
485.784,45.41500,     -12.14857
486.301,45.46667,     -12.15347
486.814,45.51833,     -12.15857
487.33,45.57000,     -12.16296
487.846,45.62167,     -12.16797
488.364,45.67333,     -12.17266
488.884,45.72500,     -12.17756
489.401,45.77667,     -12.18206
489.915,45.82833,     -12.18646
490.432,45.88000,     -12.19086
490.951,45.93167,     -12.19506
491.466,45.98333,     -12.19926
491.982,46.03500,     -12.20316
492.5,46.08667,     -12.20725
493.016,46.13833,     -12.21115
493.534,46.19000,     -12.21485
494.047,46.24167,     -12.21845
494.563,46.29333,     -12.22235
495.08,46.34500,     -12.22604
495.596,46.39667,     -12.23014
496.113,46.44833,     -12.23374
496.631,46.50000,     -12.23724
497.148,46.55167,     -12.24113
497.663,46.60333,     -12.24473
498.176,46.65500,     -12.24833
498.692,46.70667,     -12.25133
499.207,46.75833,     -12.25493
499.725,46.81000,     -12.25842
500.239,46.86167,     -12.26172
500.755,46.91333,     -12.26572
501.272,46.96500,     -12.26921
501.789,47.01667,     -12.27291
502.302,47.06833,     -12.27601
502.821,47.12000,     -12.27920
503.338,47.17167,     -12.28230
503.853,47.22333,     -12.28579
504.367,47.27500,     -12.28919
504.886,47.32667,     -12.29228
505.404,47.37833,     -12.29548
505.917,47.43000,     -12.29818
506.432,47.48167,     -12.30207
506.95,47.53333,     -12.30497
507.464,47.58500,     -12.30787
507.982,47.63667,     -12.31066
508.501,47.68833,     -12.31375
509.015,47.74000,     -12.31695
509.533,47.79167,     -12.31994
510.05,47.84333,     -12.32304
510.568,47.89500,     -12.32613
511.083,47.94667,     -12.32903
511.6,47.99833,     -12.33173
512.114,48.05000,     -12.33502
512.629,48.10167,     -12.33782
513.143,48.15333,     -12.34111
513.663,48.20500,     -12.34411
514.173,48.25667,     -12.34670
514.69,48.30833,     -12.34940
515.207,48.36000,     -12.35229
515.723,48.41167,     -12.35528
516.239,48.46333,     -12.35778
516.756,48.51500,     -12.36067
517.273,48.56667,     -12.36347
517.787,48.61833,     -12.36626
518.3,48.67000,     -12.36916
518.821,48.72167,     -12.37195
519.339,48.77333,     -12.37494
519.853,48.82500,     -12.37744
520.369,48.87667,     -12.38023
520.888,48.92833,     -12.38302
521.404,48.98000,     -12.38552
521.918,49.03167,     -12.38791
522.439,49.08333,     -12.39080
522.95,49.13500,     -12.39360
523.466,49.18667,     -12.39599
523.984,49.23833,     -12.39858
524.499,49.29000,     -12.40128
525.01,49.34167,     -12.40417
525.53,49.39333,     -12.40656
526.045,49.44500,     -12.40925
526.564,49.49667,     -12.41164
527.08,49.54833,     -12.41443
527.597,49.60000,     -12.41733
528.118,49.65167,     -12.41951
528.633,49.70333,     -12.42221
529.149,49.75500,     -12.42480
529.666,49.80667,     -12.42739
530.184,49.85833,     -12.42968
530.697,49.91000,     -12.43178
531.213,49.96167,     -12.43407
531.728,50.01333,     -12.43676
532.244,50.06500,     -12.43935
532.759,50.11667,     -12.44155
533.276,50.16833,     -12.44253
533.791,50.22000,     -12.44543
534.309,50.27167,     -12.44892
534.823,50.32333,     -12.45131
535.341,50.37500,     -12.45360
535.858,50.42667,     -12.45609
536.375,50.47833,     -12.45828
536.892,50.53000,     -12.46067
537.408,50.58167,     -12.46276
537.923,50.63333,     -12.46525
538.437,50.68500,     -12.46744
538.951,50.73667,     -12.46953
539.469,50.78833,     -12.47162
539.986,50.84000,     -12.47401
540.502,50.89167,     -12.47650
541.018,50.94333,     -12.47879
541.537,50.99500,     -12.48137
542.056,51.04667,     -12.48376
542.572,51.09833,     -12.48625
543.092,51.15000,     -12.48854
543.603,51.20167,     -12.49093
544.122,51.25333,     -12.49292
544.641,51.30500,     -12.49510
545.152,51.35667,     -12.49750
545.669,51.40833,     -12.49978
546.185,51.46000,     -12.50147
546.699,51.51167,     -12.50376
547.213,51.56333,     -12.50615
547.728,51.61500,     -12.50854
548.243,51.66667,     -12.51083
548.759,51.71833,     -12.51291
549.275,51.77000,     -12.51500
549.79,51.82167,     -12.51719
550.306,51.87333,     -12.51948
550.822,51.92500,     -12.52166
551.338,51.97667,     -12.52365
551.853,52.02833,     -12.52554
552.37,52.08000,     -12.52742
552.888,52.13167,     -12.52941
553.402,52.18333,     -12.53089
553.919,52.23500,     -12.53278
554.438,52.28667,     -12.53556
554.952,52.33833,     -12.53775
555.47,52.39000,     -12.54014
555.987,52.44167,     -12.54182
556.501,52.49333,     -12.54421
557.02,52.54500,     -12.54639
557.536,52.59667,     -12.54798
558.053,52.64833,     -12.54966
558.567,52.70000,     -12.55165
559.087,52.75167,     -12.55363
559.607,52.80333,     -12.55591
560.125,52.85500,     -12.55769
560.64,52.90667,     -12.55948
561.159,52.95833,     -12.56186
561.674,53.01000,     -12.56395
562.191,53.06167,     -12.56624
562.702,53.11333,     -12.56802
563.219,53.16500,     -12.57021
563.739,53.21667,     -12.57198
564.256,53.26833,     -12.57387
564.774,53.32000,     -12.57615
565.29,53.37167,     -12.57823
565.81,53.42333,     -12.58011
566.328,53.47500,     -12.58100
566.843,53.52667,     -12.58308
567.36,53.57833,     -12.58576
567.874,53.63000,     -12.58815
568.391,53.68167,     -12.59003
568.907,53.73333,     -12.59161
569.425,53.78500,     -12.59299
569.939,53.83667,     -12.59498
570.454,53.88833,     -12.59706
570.97,53.94000,     -12.59894
571.486,53.99167,     -12.60132
572.005,54.04333,     -12.60270
572.519,54.09500,     -12.60488
573.037,54.14667,     -12.60686
573.55,54.19833,     -12.60874
574.071,54.25000,     -12.61112
574.588,54.30167,     -12.61290
575.105,54.35333,     -12.61438
575.623,54.40500,     -12.61576
576.14,54.45667,     -12.61744
576.658,54.50833,     -12.61912
577.172,54.56000,     -12.62120
577.691,54.61167,     -12.62308
578.207,54.66333,     -12.62506
578.721,54.71500,     -12.62714
579.232,54.76667,     -12.62932
579.749,54.81833,     -12.63120
580.264,54.87000,     -12.63278
580.779,54.92167,     -12.63506
581.295,54.97333,     -12.63693
581.816,55.02500,     -12.63871
582.331,55.07667,     -12.64078
582.848,55.12833,     -12.64266
583.367,55.18000,     -12.64444
583.883,55.23167,     -12.64612
584.402,55.28333,     -12.64769
584.912,55.33500,     -12.64908
585.425,55.38667,     -12.65095
585.941,55.43833,     -12.65283
586.46,55.49000,     -12.65500
586.977,55.54167,     -12.65688
587.493,55.59333,     -12.65875
588.009,55.64500,     -12.66033
588.528,55.69667,     -12.66170
589.043,55.74833,     -12.66318
589.561,55.80000,     -12.66455
590.081,55.85167,     -12.66633
590.597,55.90333,     -12.66860
591.114,55.95500,     -12.67098
591.627,56.00667,     -12.67326
592.146,56.05833,     -12.67493
592.66,56.11000,     -12.67700
593.179,56.16167,     -12.67888
593.693,56.21333,     -12.68095
594.208,56.26500,     -12.68293
594.724,56.31667,     -12.68470
595.24,56.36833,     -12.68657
595.758,56.42000,     -12.68834
596.274,56.47167,     -12.68992
596.793,56.52333,     -12.69149
597.307,56.57500,     -12.69346
597.827,56.62667,     -12.69493
598.338,56.67833,     -12.69671
598.854,56.73000,     -12.69848
599.37,56.78167,     -12.70056
599.888,56.83333,     -12.70222
600.404,56.88500,     -12.70460
600.924,56.93667,     -12.70666
601.444,56.98833,     -12.70833
601.962,57.04000,     -12.70980
602.482,57.09167,     -12.71127
602.996,57.14333,     -12.71344
603.515,57.19500,     -12.71541
604.029,57.24667,     -12.71799
604.543,57.29833,     -12.72026
605.058,57.35000,     -12.72223
605.575,57.40167,     -12.72360
606.092,57.45333,     -12.72517
606.612,57.50500,     -12.72703
607.123,57.55667,     -12.72941
607.641,57.60833,     -12.73128
608.158,57.66000,     -12.73284
608.671,57.71167,     -12.73501
609.188,57.76333,     -12.73738
609.703,57.81500,     -12.73955
610.218,57.86667,     -12.74172
610.735,57.91833,     -12.74309
611.253,57.97000,     -12.74435
611.768,58.02167,     -12.74632
612.285,58.07333,     -12.74859
612.801,58.12500,     -12.75075
613.319,58.17667,     -12.75282
613.84,58.22833,     -12.75488
614.355,58.28000,     -12.75735
614.876,58.33167,     -12.75972
615.395,58.38333,     -12.76158
615.908,58.43500,     -12.76375
616.421,58.48667,     -12.76582
616.94,58.53833,     -12.76798
617.454,58.59000,     -12.76945
617.973,58.64167,     -12.77072
618.487,58.69333,     -12.77258
619.003,58.74500,     -12.77485
619.519,58.79667,     -12.77692
620.034,58.84833,     -12.77908
620.552,58.90000,     -12.78174
621.067,58.95167,     -12.78391
621.585,59.00333,     -12.78627
622.102,59.05500,     -12.78814
622.616,59.10667,     -12.79040
623.132,59.15833,     -12.79237
623.652,59.21000,     -12.79473
624.166,59.26167,     -12.79729
624.686,59.31333,     -12.79945
625.202,59.36500,     -12.80202
625.717,59.41667,     -12.80418
626.233,59.46833,     -12.80625
626.751,59.52000,     -12.80811
627.263,59.57167,     -12.81027
627.781,59.62333,     -12.81254
628.296,59.67500,     -12.81500
628.813,59.72667,     -12.81746
629.331,59.77833,     -12.81982
629.845,59.83000,     -12.82218
630.362,59.88167,     -12.82465
630.879,59.93333,     -12.82721
631.396,59.98500,     -12.82937
631.915,60.03667,     -12.83163
632.43,60.08833,     -12.83399
632.946,60.14000,     -12.83645
633.458,60.19167,     -12.83902
633.975,60.24333,     -12.84158
634.492,60.29500,     -12.84394
635.006,60.34667,     -12.84630
635.523,60.39833,     -12.84896
636.043,60.45000,     -12.85112
636.557,60.50167,     -12.85368
637.075,60.55333,     -12.85584
637.589,60.60500,     -12.85920
638.105,60.65667,     -12.86206
638.622,60.70833,     -12.86512
639.138,60.76000,     -12.86798
639.654,60.81167,     -12.87044
640.169,60.86333,     -12.87300
640.688,60.91500,     -12.87535
641.204,60.96667,     -12.87812
641.719,61.01833,     -12.88088
642.236,61.07000,     -12.88293
642.75,61.12167,     -12.88609
643.265,61.17333,     -12.88905
643.784,61.22500,     -12.89181
644.304,61.27667,     -12.89456
644.823,61.32833,     -12.89752
645.338,61.38000,     -12.90048
645.854,61.43167,     -12.90384
646.37,61.48333,     -12.90710
646.881,61.53500,     -12.91006
647.399,61.58667,     -12.91332
647.914,61.63833,     -12.91587
648.434,61.69000,     -12.91873
648.953,61.74167,     -12.92158
649.469,61.79333,     -12.92444
649.986,61.84500,     -12.92760
650.506,61.89667,     -12.93085
651.021,61.94833,     -12.93341
651.535,62.00000,     -12.93667
652.049,62.05167,     -12.93993
652.566,62.10333,     -12.94308
653.078,62.15500,     -12.94644
653.595,62.20667,     -12.94960
654.11,62.25833,     -12.95285
654.626,62.31000,     -12.95621
655.146,62.36167,     -12.95976
655.665,62.41333,     -12.96291
656.181,62.46500,     -12.96597
656.696,62.51667,     -12.96963
657.21,62.56833,     -12.97278
657.73,62.62000,     -12.97684
658.243,62.67167,     -12.97999
658.759,62.72333,     -12.98335
659.276,62.77500,     -12.98660
659.792,62.82667,     -12.99006
660.307,62.87833,     -12.99392
660.825,62.93000,     -12.99717
661.344,62.98167,     -13.00092
661.859,63.03333,     -13.00437
662.379,63.08500,     -13.00803
662.894,63.13667,     -13.01138
663.409,63.18833,     -13.01474
663.928,63.24000,     -13.01779
664.441,63.29167,     -13.02145
664.96,63.34333,     -13.02530
665.476,63.39500,     -13.02915
665.992,63.44667,     -13.03270
666.509,63.49833,     -13.03606
667.027,63.55000,     -13.03971
667.542,63.60167,     -13.04306
668.061,63.65333,     -13.04671
668.577,63.70500,     -13.05007
669.096,63.75667,     -13.05392
669.617,63.80833,     -13.05777
670.133,63.86000,     -13.06132
670.65,63.91167,     -13.06497
671.168,63.96333,     -13.06823
671.681,64.01500,     -13.07138
672.196,64.06667,     -13.07444
672.713,64.11833,     -13.07779
673.226,64.17000,     -13.08144
673.743,64.22167,     -13.08499
674.26,64.27333,     -13.08824
674.779,64.32500,     -13.09119
675.296,64.37667,     -13.09414
675.814,64.42833,     -13.09739
676.329,64.48000,     -13.10105
676.846,64.53167,     -13.10410
677.362,64.58333,     -13.10725
677.877,64.63500,     -13.11010
678.393,64.68667,     -13.11315
678.909,64.73833,     -13.11641
679.425,64.79000,     -13.11916
679.941,64.84167,     -13.12161
680.461,64.89333,     -13.12365
680.978,64.94500,     -13.12630
681.493,64.99667,     -13.12865
682.013,65.04833,     -13.13050
682.528,65.10000,     -13.13196
683.043,65.15167,     -13.13411
683.561,65.20333,     -13.13626
684.076,65.25500,     -13.13811
684.593,65.30667,     -13.13986
685.113,65.35833,     -13.14111
685.628,65.41000,     -13.14256
686.146,65.46167,     -13.14380
686.662,65.51333,     -13.14516
687.181,65.56500,     -13.14640
687.696,65.61667,     -13.14775
688.211,65.66833,     -13.14880
688.729,65.72000,     -13.14975
689.247,65.77167,     -13.15040
689.763,65.82333,     -13.15165
690.279,65.87500,     -13.15300
690.794,65.92667,     -13.15415
691.308,65.97833,     -13.15540
691.827,66.03000,     -13.15625
692.344,66.08167,     -13.15700
692.859,66.13333,     -13.15825
693.378,66.18500,     -13.15959
693.892,66.23667,     -13.16074
694.411,66.28833,     -13.16189
694.927,66.34000,     -13.16314
695.444,66.39167,     -13.16419
695.959,66.44333,     -13.16493
696.477,66.49500,     -13.16588
696.991,66.54667,     -13.16703
697.51,66.59833,     -13.16818
698.024,66.65000,     -13.16923
698.543,66.70167,     -13.17018
699.059,66.75333,     -13.17122
699.576,66.80500,     -13.17247
700.091,66.85667,     -13.17332
700.606,66.90833,     -13.17427
701.121,66.96000,     -13.17512
701.634,67.01167,     -13.17587
702.153,67.06333,     -13.17711
702.672,67.11500,     -13.17736
703.189,67.16667,     -13.17891
703.707,67.21833,     -13.18105
704.221,67.27000,     -13.18320
704.734,67.32167,     -13.18455
705.252,67.37333,     -13.18570
705.767,67.42500,     -13.18645
706.285,67.47667,     -13.18729
706.804,67.52833,     -13.18814
707.322,67.58000,     -13.18899
707.842,67.63167,     -13.19003
708.355,67.68333,     -13.19078
708.873,67.73500,     -13.19163
709.39,67.78667,     -13.19268
709.906,67.83833,     -13.19382
710.42,67.89000,     -13.19467
710.938,67.94167,     -13.19562
711.449,67.99333,     -13.19647
711.97,68.04500,     -13.19741
712.488,68.09667,     -13.19826
713.002,68.14833,     -13.19891
713.519,68.20000,     -13.19946
714.03,68.25167,     -13.20031
714.549,68.30333,     -13.20135
715.066,68.35500,     -13.20220
715.585,68.40667,     -13.20305
716.104,68.45833,     -13.20399
716.622,68.51000,     -13.20484
717.138,68.56167,     -13.20578
717.653,68.61333,     -13.20694
718.168,68.66500,     -13.20798
718.683,68.71667,     -13.20893
719.198,68.76833,     -13.20998
719.711,68.82000,     -13.21093
720.226,68.87167,     -13.21197
720.744,68.92333,     -13.21312
721.261,68.97500,     -13.21406
721.779,69.02667,     -13.21521
722.295,69.07833,     -13.21616
722.813,69.13000,     -13.21690
723.328,69.18167,     -13.21745
723.848,69.23333,     -13.21819
724.363,69.28500,     -13.21914
724.879,69.33667,     -13.21999
725.397,69.38833,     -13.22083
725.912,69.44000,     -13.22178
726.429,69.49167,     -13.22283
726.945,69.54333,     -13.22367
727.461,69.59500,     -13.22462
727.977,69.64667,     -13.22566
728.495,69.69833,     -13.22681
729.007,69.75000,     -13.22786
729.526,69.80167,     -13.22860
730.045,69.85333,     -13.22945
730.564,69.90500,     -13.23019
731.081,69.95667,     -13.23113
731.598,70.00833,     -13.23198
732.115,70.06000,     -13.23262
732.633,70.11167,     -13.23327
733.148,70.16333,     -13.23391
733.663,70.21500,     -13.23486
734.179,70.26667,     -13.23571
734.697,70.31833,     -13.23685
735.212,70.37000,     -13.23779
735.726,70.42167,     -13.23874
736.244,70.47333,     -13.23969
736.762,70.52500,     -13.24073
737.282,70.57667,     -13.24137
737.794,70.62833,     -13.24212
738.311,70.68000,     -13.24306
738.832,70.73167,     -13.24390
739.347,70.78333,     -13.24474
739.865,70.83500,     -13.24539
740.381,70.88667,     -13.24613
740.895,70.93833,     -13.24678
741.411,70.99000,     -13.24752
741.928,71.04167,     -13.24836
742.445,71.09333,     -13.24951
742.962,71.14500,     -13.25055
743.478,71.19667,     -13.25099
743.994,71.24833,     -13.25203
744.512,71.30000,     -13.25267
745.029,71.35167,     -13.25332
745.544,71.40333,     -13.25406
746.062,71.45500,     -13.25450
746.577,71.50667,     -13.25525
747.09,71.55833,     -13.25589
747.609,71.61000,     -13.25663
748.122,71.66167,     -13.25757
748.641,71.71333,     -13.25861
749.157,71.76500,     -13.25945
749.672,71.81667,     -13.26049
750.187,71.86833,     -13.26143
750.703,71.92000,     -13.26228
751.218,71.97167,     -13.26312
751.736,72.02333,     -13.26396
752.253,72.07500,     -13.26429
752.776,72.12667,     -13.26483
753.292,72.17833,     -13.26537
753.812,72.23000,     -13.26561
754.328,72.28167,     -13.26595
754.842,72.33333,     -13.26719
755.356,72.38500,     -13.26823
755.874,72.43667,     -13.26907
756.39,72.48833,     -13.27021
756.908,72.54000,     -13.27075
757.423,72.59167,     -13.27149
757.939,72.64333,     -13.27203
758.459,72.69500,     -13.27256
758.974,72.74667,     -13.27320
759.489,72.79833,     -13.27374
760.004,72.85000,     -13.27418
760.52,72.90167,     -13.27462
761.037,72.95333,     -13.27546
761.551,73.00500,     -13.27609
762.067,73.05667,     -13.27673
762.58,73.10833,     -13.27777
763.095,73.16000,     -13.27841
763.61,73.21167,     -13.27914
764.127,73.26333,     -13.27978
764.645,73.31500,     -13.28041
765.164,73.36667,     -13.28145
765.681,73.41833,     -13.28248
766.197,73.47000,     -13.28312
766.717,73.52167,     -13.28355
767.239,73.57333,     -13.28398
767.757,73.62500,     -13.28472
768.273,73.67667,     -13.28526
768.787,73.72833,     -13.28599
769.302,73.78000,     -13.28673
769.816,73.83167,     -13.28776
770.33,73.88333,     -13.28860
770.843,73.93500,     -13.28943
771.357,73.98667,     -13.29027
771.873,74.03833,     -13.29110
772.391,74.09000,     -13.29183
772.912,74.14167,     -13.29276
773.429,74.19333,     -13.29349
773.946,74.24500,     -13.29413
774.463,74.29667,     -13.29476
774.983,74.34833,     -13.29549
775.498,74.40000,     -13.29612
776.016,74.45167,     -13.29665
776.532,74.50333,     -13.29728
777.049,74.55500,     -13.29792
777.566,74.60667,     -13.29845
778.081,74.65833,     -13.29888
778.6,74.71000,     -13.29931
779.117,74.76167,     -13.29974
779.634,74.81333,     -13.30037
780.147,74.86500,     -13.30090
780.666,74.91667,     -13.30143
781.18,74.96833,     -13.30186
781.699,75.02000,     -13.30239
782.218,75.07167,     -13.30351
782.732,75.12333,     -13.30434
783.249,75.17500,     -13.30507
783.766,75.22667,     -13.30560
784.28,75.27833,     -13.30633
784.796,75.33000,     -13.30686
785.313,75.38167,     -13.30768
785.832,75.43333,     -13.30841
786.349,75.48500,     -13.30903
786.864,75.53667,     -13.30966
787.379,75.58833,     -13.31029
787.901,75.64000,     -13.31101
788.417,75.69167,     -13.31144
788.938,75.74333,     -13.31196
789.457,75.79500,     -13.31268
789.972,75.84667,     -13.31331
790.491,75.89833,     -13.31363
791.006,75.95000,     -13.31396
791.522,76.00167,     -13.31408
792.039,76.05333,     -13.31371
792.551,76.10500,     -13.31463
793.069,76.15667,     -13.31506
793.582,76.20833,     -13.31628
794.095,76.26000,     -13.31761
794.613,76.31167,     -13.31843
795.131,76.36333,     -13.31885
795.653,76.41500,     -13.31937
796.174,76.46667,     -13.31978
796.69,76.51833,     -13.32021
797.214,76.57000,     -13.32062
797.73,76.62167,     -13.32125
798.242,76.67333,     -13.32177
798.758,76.72500,     -13.32259
799.271,76.77667,     -13.32311
799.486,76.79833,     -13.32334