File: data-raw/TGA/Q_TGA.csv
#EXPORTTYPE:                 ,DATA SINGLE
#FILE:                       ,Q.ngb-st9
#FORMAT:                     ,NETZSCH5
#FTYPE:                      ,ANSI
#IDENTITY:                   ,Saras
#DECIMAL:                    ,POINT
#SEPARATOR:                  ,COMMA
#MTYPE:                      ,TG
#INSTRUMENT:                 ,NETZSCH TG 209F1 Libra
#PROJECT:                    ,IL
#DATE/TIME:                  ,21/03/2017 4:47:06 PM (UTC+11)
#CORR. FILE:                 ,
#TEMPCAL:                    ,TCALZERO.TCX
#LABORATORY:                 ,Capture Lab
#OPERATOR:                   ,NJN
#REMARK:                     ,Training run
#SAMPLE:                     ,Q
#SAMPLE MASS /mg:            ,11.3483
#MATERIAL:                   ,zeolite
#TYPE OF CRUCIBLE:           ,Al2O3
#SAMPLE CRUCIBLE MASS /mg:   ,312.0190
#REFERENCE CRUCIBLE MASS /mg:,
#M.RANGE /mg:                ,2000
#CORR. CODE:                 ,090
#RANGE:                      ,32°C/10.0(K/min)/800°C
#SEGMENT:                    ,S1/1
#SEG. 1:                     ,32°C/10.0(K/min)/800°C

##Temp./°C,Time/min,Mass loss/mg
 31.57100, 0.00000,-2.051744e-003
 31.57000, 0.05167,-2.976246e-003
 31.63200, 0.10333,-4.208956e-003
 31.95300, 0.15500,-4.068894e-003
 32.34800, 0.20667,-2.589542e-003
 32.71700, 0.25833,-2.319781e-003
 33.09000, 0.31000,-3.054281e-003
 33.51600, 0.36167,-3.697165e-003
 33.98400, 0.41333,-4.163325e-003
 34.47800, 0.46500,-4.584650e-003
 35.00200, 0.51667,-4.939214e-003
 35.55100, 0.56833,-5.649021e-003
 36.13000, 0.62000,-6.229428e-003
 36.72700, 0.67167,-7.114375e-003
 37.34400, 0.72333,-7.946187e-003
 37.97300, 0.77500,-8.765819e-003
 38.61400, 0.82667,-9.717510e-003
 39.26200, 0.87833,-1.067869e-002
 39.91200, 0.93000,-1.196503e-002
 40.56700, 0.98167,-1.338841e-002
 41.21700, 1.03333,-1.483042e-002
 41.87200, 1.08500,-1.655577e-002
 42.51600, 1.13667,-1.869481e-002
 43.15500, 1.18833,-2.138391e-002
 43.78100, 1.24000,-2.389692e-002
 44.40600, 1.29167,-2.673438e-002
 45.01800, 1.34333,-2.944112e-002
 45.62100, 1.39500,-3.200306e-002
 46.21100, 1.44667,-3.483284e-002
 46.79100, 1.49833,-3.749709e-002
 47.35900, 1.55000,-4.002908e-002
 47.91900, 1.60167,-4.218035e-002
 48.46400, 1.65333,-4.468008e-002
 49.00600, 1.70500,-4.726284e-002
 49.54400, 1.75667,-5.016546e-002
 50.06300, 1.80833,-5.312146e-002
 50.58200, 1.86000,-5.629588e-002
 51.09400, 1.91167,-5.970968e-002
 51.60400, 1.96333,-6.255160e-002
 52.10900, 2.01500,-6.558845e-002
 52.60900, 2.06667,-6.813443e-002
 53.10700, 2.11833,-7.151101e-002
 53.60500, 2.17000,-7.468807e-002
 54.09500, 2.22167,-7.805186e-002
 54.59100, 2.27333,-8.169468e-002
 55.08600, 2.32500,-8.501885e-002
 55.58400, 2.37667,-8.826017e-002
 56.07800, 2.42833,-9.229223e-002
 56.57600, 2.48000,-9.624379e-002
 57.07400, 2.53167,-9.978463e-002
 57.58000, 2.58333,      -0.10327
 58.07900, 2.63500,      -0.10672
 58.58400, 2.68667,      -0.10998
 59.09100, 2.73833,      -0.11316
 59.59800, 2.79000,      -0.11701
 60.10500, 2.84167,      -0.12105
 60.61900, 2.89333,      -0.12513
 61.13200, 2.94500,      -0.12889
 61.64600, 2.99667,      -0.13284
 62.16000, 3.04833,      -0.13700
 62.67800, 3.10000,      -0.14024
 63.19300, 3.15167,      -0.14379
 63.70900, 3.20333,      -0.14741
 64.23100, 3.25500,      -0.15168
 64.75400, 3.30667,      -0.15652
 65.27200, 3.35833,      -0.16094
 65.79700, 3.41000,      -0.16509
 66.31600, 3.46167,      -0.16879
 66.84100, 3.51333,      -0.17283
 67.36000, 3.56500,      -0.17654
 67.88400, 3.61667,      -0.18086
 68.40900, 3.66833,      -0.18511
 68.92900, 3.72000,      -0.18910
 69.44700, 3.77167,      -0.19309
 69.97200, 3.82333,      -0.19672
 70.49400, 3.87500,      -0.20093
 71.01100, 3.92667,      -0.20492
 71.53300, 3.97833,      -0.20943
 72.05100, 4.03000,      -0.21383
 72.57200, 4.08167,      -0.21823
 73.09200, 4.13333,      -0.22223
 73.61200, 4.18500,      -0.22585
 74.12900, 4.23667,      -0.22973
 74.64800, 4.28833,      -0.23374
 75.16400, 4.34000,      -0.23774
 75.68200, 4.39167,      -0.24143
 76.20100, 4.44333,      -0.24534
 76.71600, 4.49500,      -0.24913
 77.23300, 4.54667,      -0.25282
 77.74900, 4.59833,      -0.25641
 78.26400, 4.65000,      -0.26042
 78.77900, 4.70167,      -0.26441
 79.30000, 4.75333,      -0.26792
 79.81100, 4.80500,      -0.27132
 80.32800, 4.85667,      -0.27472
 80.84600, 4.90833,      -0.27822
 81.36200, 4.96000,      -0.28162
 81.87800, 5.01167,      -0.28542
 82.38900, 5.06333,      -0.28879
 82.90800, 5.11500,      -0.29191
 83.42500, 5.16667,      -0.29581
 83.94300, 5.21833,      -0.29931
 84.45900, 5.27000,      -0.30322
 84.97900, 5.32167,      -0.30683
 85.49700, 5.37333,      -0.31012
 86.01500, 5.42500,      -0.31311
 86.53100, 5.47667,      -0.31611
 87.04900, 5.52833,      -0.31871
 87.56800, 5.58000,      -0.32131
 88.08400, 5.63167,      -0.32459
 88.60200, 5.68333,      -0.32779
 89.12100, 5.73500,      -0.33078
 89.63800, 5.78667,      -0.33328
 90.15600, 5.83833,      -0.33606
 90.67600, 5.89000,      -0.33857
 91.19200, 5.94167,      -0.34125
 91.71000, 5.99333,      -0.34405
 92.22700, 6.04500,      -0.34684
 92.74500, 6.09667,      -0.34953
 93.26500, 6.14833,      -0.35174
 93.78300, 6.20000,      -0.35422
 94.29900, 6.25167,      -0.35661
 94.81500, 6.30333,      -0.35910
 95.33600, 6.35500,      -0.36170
 95.85200, 6.40667,      -0.36469
 96.37000, 6.45833,      -0.36748
 96.88600, 6.51000,      -0.36976
 97.40500, 6.56167,      -0.37226
 97.92400, 6.61333,      -0.37405
 98.43900, 6.66500,      -0.37573
 98.95800, 6.71667,      -0.37743
 99.47600, 6.76833,      -0.37953
 99.99100, 6.82000,      -0.38191
100.509, 6.87167,      -0.38463
101.026, 6.92333,      -0.38644
101.542, 6.97500,      -0.38756
102.061, 7.02667,      -0.38877
102.574, 7.07833,      -0.39047
103.089, 7.13000,      -0.39207
103.609, 7.18167,      -0.39379
104.127, 7.23333,      -0.39580
104.641, 7.28500,      -0.39810
105.158, 7.33667,      -0.40010
105.672, 7.38833,      -0.40180
106.19, 7.44000,      -0.40331
106.704, 7.49167,      -0.40471
107.218, 7.54333,      -0.40620
107.736, 7.59500,      -0.40760
108.253, 7.64667,      -0.40871
108.769, 7.69833,      -0.40980
109.286, 7.75000,      -0.41110
109.8, 7.80167,      -0.41228
110.315, 7.85333,      -0.41357
110.828, 7.90500,      -0.41496
111.348, 7.95667,      -0.41626
111.861, 8.00833,      -0.41774
112.378, 8.06000,      -0.41944
112.893, 8.11167,      -0.42092
113.409, 8.16333,      -0.42310
113.925, 8.21500,      -0.42469
114.443, 8.26667,      -0.42608
114.959, 8.31833,      -0.42736
115.473, 8.37000,      -0.42844
115.992, 8.42167,      -0.42953
116.509, 8.47333,      -0.43041
117.026, 8.52500,      -0.43159
117.546, 8.57667,      -0.43298
118.062, 8.62833,      -0.43384
118.579, 8.68000,      -0.43492
119.098, 8.73167,      -0.43599
119.613, 8.78333,      -0.43716
120.131, 8.83500,      -0.43793
120.648, 8.88667,      -0.43889
121.166, 8.93833,      -0.43988
121.683, 8.99000,      -0.44114
122.197, 9.04167,      -0.44230
122.716, 9.09333,      -0.44367
123.229, 9.14500,      -0.44503
123.745, 9.19667,      -0.44619
124.265, 9.24833,      -0.44757
124.783, 9.30000,      -0.44884
125.298, 9.35167,      -0.44980
125.819, 9.40333,      -0.45046
126.335, 9.45500,      -0.45152
126.853, 9.50667,      -0.45238
127.368, 9.55833,      -0.45344
127.883, 9.61000,      -0.45439
128.401, 9.66167,      -0.45515
128.912, 9.71333,      -0.45619
129.431, 9.76500,      -0.45745
129.947, 9.81667,      -0.45851
130.463, 9.86833,      -0.45937
130.98, 9.92000,      -0.46042
131.492, 9.97167,      -0.46146
132.011,10.02333,      -0.46252
132.527,10.07500,      -0.46348
133.043,10.12667,      -0.46463
133.563,10.17833,      -0.46578
134.078,10.23000,      -0.46682
134.594,10.28167,      -0.46797
135.113,10.33333,      -0.46903
135.632,10.38500,      -0.47008
136.147,10.43667,      -0.47132
136.665,10.48833,      -0.47237
137.183,10.54000,      -0.47341
137.701,10.59167,      -0.47436
138.222,10.64333,      -0.47541
138.741,10.69500,      -0.47626
139.26,10.74667,      -0.47720
139.776,10.79833,      -0.47853
140.292,10.85000,      -0.48017
140.808,10.90167,      -0.48191
141.323,10.95333,      -0.48335
141.843,11.00500,      -0.48379
142.359,11.05667,      -0.48423
142.875,11.10833,      -0.48487
143.392,11.16000,      -0.48570
143.911,11.21167,      -0.48665
144.424,11.26333,      -0.48747
144.943,11.31500,      -0.48861
145.459,11.36667,      -0.48985
145.973,11.41833,      -0.49098
146.49,11.47000,      -0.49232
147.008,11.52167,      -0.49366
147.524,11.57333,      -0.49499
148.042,11.62500,      -0.49622
148.558,11.67667,      -0.49766
149.069,11.72833,      -0.49888
149.59,11.78000,      -0.50003
150.107,11.83167,      -0.50096
150.622,11.88333,      -0.50189
151.139,11.93500,      -0.50302
151.656,11.98667,      -0.50415
152.172,12.03833,      -0.50538
152.69,12.09000,      -0.50662
153.207,12.14167,      -0.50825
153.724,12.19333,      -0.51028
154.24,12.24500,      -0.51281
154.757,12.29667,      -0.51463
155.272,12.34833,      -0.51576
155.79,12.40000,      -0.51690
156.306,12.45167,      -0.51753
156.825,12.50333,      -0.51836
157.338,12.55500,      -0.51928
157.854,12.60667,      -0.52061
158.377,12.65833,      -0.52185
158.89,12.71000,      -0.52347
159.405,12.76167,      -0.52539
159.922,12.81333,      -0.52792
160.442,12.86500,      -0.53025
160.957,12.91667,      -0.53168
161.474,12.96833,      -0.53320
161.992,13.02000,      -0.53473
162.508,13.07167,      -0.53675
163.021,13.12333,      -0.53848
163.537,13.17500,      -0.53990
164.054,13.22667,      -0.54103
164.571,13.27833,      -0.54226
165.086,13.33000,      -0.54429
165.601,13.38167,      -0.54681
166.12,13.43333,      -0.54964
166.634,13.48500,      -0.55206
167.155,13.53667,      -0.55400
167.669,13.58833,      -0.55542
168.189,13.64000,      -0.55685
168.701,13.69167,      -0.55886
169.219,13.74333,      -0.56159
169.735,13.79500,      -0.56412
170.251,13.84667,      -0.56655
170.768,13.89833,      -0.56898
171.285,13.95000,      -0.57121
171.807,14.00167,      -0.57384
172.32,14.05333,      -0.57626
172.84,14.10500,      -0.57869
173.355,14.15667,      -0.58101
173.87,14.20833,      -0.58303
174.386,14.26000,      -0.58526
174.902,14.31167,      -0.58779
175.42,14.36333,      -0.59022
175.938,14.41500,      -0.59275
176.456,14.46667,      -0.59567
176.97,14.51833,      -0.59850
177.489,14.57000,      -0.60153
178.004,14.62167,      -0.60455
178.521,14.67333,      -0.60748
179.04,14.72500,      -0.61091
179.553,14.77667,      -0.61384
180.069,14.82833,      -0.61726
180.588,14.88000,      -0.62000
181.106,14.93167,      -0.62313
181.622,14.98333,      -0.62646
182.138,15.03500,      -0.62989
182.655,15.08667,      -0.63342
183.169,15.13833,      -0.63654
183.69,15.19000,      -0.63978
184.205,15.24167,      -0.64311
184.721,15.29333,      -0.64664
185.241,15.34500,      -0.65047
185.756,15.39667,      -0.65470
186.271,15.44833,      -0.65864
186.786,15.50000,      -0.66306
187.302,15.55167,      -0.66709
187.821,15.60333,      -0.67153
188.335,15.65500,      -0.67566
188.851,15.70667,      -0.68040
189.368,15.75833,      -0.68503
189.884,15.81000,      -0.68927
190.401,15.86167,      -0.69410
190.918,15.91333,      -0.69914
191.435,15.96500,      -0.70428
191.953,16.01667,      -0.70962
192.469,16.06833,      -0.71446
192.987,16.12000,      -0.71939
193.507,16.17167,      -0.72393
194.024,16.22333,      -0.72927
194.542,16.27500,      -0.73441
195.061,16.32667,      -0.74025
195.577,16.37833,      -0.74579
196.097,16.43000,      -0.75153
196.613,16.48167,      -0.75737
197.13,16.53333,      -0.76361
197.647,16.58500,      -0.77005
198.164,16.63667,      -0.77620
198.681,16.68833,      -0.78214
199.197,16.74000,      -0.78789
199.717,16.79167,      -0.79423
200.232,16.84333,      -0.80017
200.746,16.89500,      -0.80692
201.263,16.94667,      -0.81356
201.778,16.99833,      -0.82011
202.295,17.05000,      -0.82706
202.81,17.10167,      -0.83370
203.327,17.15333,      -0.84085
203.841,17.20500,      -0.84740
204.36,17.25667,      -0.85434
204.875,17.30833,      -0.86099
205.393,17.36000,      -0.86824
205.909,17.41167,      -0.87509
206.421,17.46333,      -0.88213
206.941,17.51500,      -0.88938
207.458,17.56667,      -0.89603
207.977,17.61833,      -0.90368
208.496,17.67000,      -0.91063
209.015,17.72167,      -0.91808
209.531,17.77333,      -0.92522
210.048,17.82500,      -0.93277
210.565,17.87667,      -0.94072
211.08,17.92833,      -0.94817
211.6,17.98000,      -0.95592
212.11,18.03167,      -0.96326
212.626,18.08333,      -0.97081
213.142,18.13500,      -0.97826
213.657,18.18667,      -0.98611
214.176,18.23833,      -0.99336
214.688,18.29000,      -1.00110
215.209,18.34167,      -1.00896
215.725,18.39333,      -1.01691
216.241,18.44500,      -1.02466
216.759,18.49667,      -1.03201
217.277,18.54833,      -1.03986
217.795,18.60000,      -1.04701
218.312,18.65167,      -1.05486
218.827,18.70333,      -1.06261
219.344,18.75500,      -1.07166
219.858,18.80667,      -1.08001
220.374,18.85833,      -1.08856
220.888,18.91000,      -1.09740
221.405,18.96167,      -1.10556
221.921,19.01333,      -1.11431
222.436,19.06500,      -1.12206
222.951,19.11667,      -1.13071
223.468,19.16833,      -1.13896
223.984,19.22000,      -1.14761
224.505,19.27167,      -1.15657
225.023,19.32333,      -1.16482
225.54,19.37500,      -1.17377
226.055,19.42667,      -1.18292
226.571,19.47833,      -1.19257
227.086,19.53000,      -1.20162
227.606,19.58167,      -1.21107
228.124,19.63333,      -1.22032
228.64,19.68500,      -1.23017
229.156,19.73667,      -1.23972
229.672,19.78833,      -1.24938
230.188,19.84000,      -1.25983
230.704,19.89167,      -1.26958
231.218,19.94333,      -1.28003
231.733,19.99500,      -1.28998
232.249,20.04667,      -1.30063
232.767,20.09833,      -1.31049
233.282,20.15000,      -1.32134
233.798,20.20167,      -1.33239
234.318,20.25333,      -1.34284
234.837,20.30500,      -1.35460
235.352,20.35667,      -1.36565
235.87,20.40833,      -1.37820
236.386,20.46000,      -1.38905
236.901,20.51167,      -1.40070
237.419,20.56333,      -1.41196
237.932,20.61500,      -1.42411
238.449,20.66667,      -1.43696
238.967,20.71833,      -1.44871
239.486,20.77000,      -1.46137
240.002,20.82167,      -1.47382
240.515,20.87333,      -1.48667
241.032,20.92500,      -1.49912
241.549,20.97667,      -1.51257
242.066,21.02833,      -1.52543
242.582,21.08000,      -1.55158
243.099,21.13167,      -1.56153
243.615,21.18333,      -1.57208
244.135,21.23500,      -1.58384
244.651,21.28667,      -1.60799
245.167,21.33833,      -1.61734
245.687,21.39000,      -1.62859
246.205,21.44167,      -1.64154
246.72,21.49333,      -1.66460
247.237,21.54500,      -1.67565
247.753,21.59667,      -1.68860
248.269,21.64833,      -1.71355
248.785,21.70000,      -1.72440
249.304,21.75167,      -1.73576
249.818,21.80333,      -1.75841
250.337,21.85500,      -1.76896
250.853,21.90667,      -1.79421
251.367,21.95833,      -1.80526
251.885,22.01000,      -1.82751
252.402,22.06167,      -1.84047
252.918,22.11333,      -1.85222
253.433,22.16500,      -1.87997
253.951,22.21667,      -1.89632
254.466,22.26833,      -1.91457
254.983,22.32000,      -1.93243
255.499,22.37167,      -1.95038
256.015,22.42333,      -1.96873
256.534,22.47500,      -1.98728
257.051,22.52667,      -2.00683
257.567,22.57833,      -2.02508
258.083,22.63000,      -2.04404
258.6,22.68167,      -2.06289
259.117,22.73333,      -2.08294
259.633,22.78500,      -2.10209
260.15,22.83667,      -2.12254
260.666,22.88833,      -2.14219
261.184,22.94000,      -2.16234
261.702,22.99167,      -2.18259
262.218,23.04333,      -2.20164
262.733,23.09500,      -2.22199
263.249,23.14667,      -2.24105
263.767,23.19833,      -2.26160
264.281,23.25000,      -2.28095
264.798,23.30167,      -2.30150
265.315,23.35333,      -2.32105
265.833,23.40500,      -2.34190
266.346,23.45667,      -2.36215
266.865,23.50833,      -2.38130
267.382,23.56000,      -2.40165
267.899,23.61167,      -2.42100
268.415,23.66333,      -2.44115
268.93,23.71500,      -2.46070
269.442,23.76667,      -2.48065
269.96,23.81833,      -2.50030
270.472,23.87000,      -2.52025
270.989,23.92167,      -2.54020
271.507,23.97333,      -2.55935
272.019,24.02500,      -2.57919
272.536,24.07667,      -2.59784
273.053,24.12833,      -2.61819
273.569,24.18000,      -2.63674
274.086,24.23167,      -2.65619
274.604,24.28333,      -2.67494
275.119,24.33500,      -2.69489
275.639,24.38667,      -2.71424
276.152,24.43833,      -2.73248
276.67,24.49000,      -2.75183
277.188,24.54167,      -2.77058
277.703,24.59333,      -2.79033
278.219,24.64500,      -2.80947
278.773,24.69667,      -2.82912
279.294,24.74833,      -2.84797
279.808,24.80000,      -2.86811
280.32,24.85167,      -2.88846
280.827,24.90333,      -2.90731
281.335,24.95500,      -2.92785
281.844,25.00667,      -2.94680
282.355,25.05833,      -2.96725
282.866,25.11000,      -2.98700
283.379,25.16167,      -3.00694
283.895,25.21333,      -3.02589
284.408,25.26500,      -3.04694
284.927,25.31667,      -3.06838
285.444,25.36833,      -3.08743
285.961,25.42000,      -3.10877
286.477,25.47167,      -3.12842
286.995,25.52333,      -3.14926
287.51,25.57500,      -3.16961
288.026,25.62667,      -3.19075
288.543,25.67833,      -3.21220
289.062,25.73000,      -3.23384
289.577,25.78167,      -3.25558
290.094,25.83333,      -3.27493
290.611,25.88500,      -3.29677
291.129,25.93667,      -3.31772
291.644,25.98833,      -3.33976
292.164,26.04000,      -3.36060
292.681,26.09167,      -3.38275
293.198,26.14333,      -3.40439
293.713,26.19500,      -3.42633
294.233,26.24667,      -3.44887
294.748,26.29833,      -3.47032
295.268,26.35000,      -3.49316
295.785,26.40167,      -3.51530
296.299,26.45333,      -3.53884
296.815,26.50500,      -3.56118
297.329,26.55667,      -3.58402
297.845,26.60833,      -3.60616
298.361,26.66000,      -3.62961
298.875,26.71167,      -3.65355
299.389,26.76333,      -3.67639
299.907,26.81500,      -3.70043
300.425,26.86667,      -3.72287
300.944,26.91833,      -3.74701
301.458,26.97000,      -3.76965
301.975,27.02167,      -3.79419
302.492,27.07333,      -3.81813
303.009,27.12500,      -3.84277
303.526,27.17667,      -3.86751
304.045,27.22833,      -3.89065
304.561,27.28000,      -3.91559
305.079,27.33167,      -3.93933
305.596,27.38333,      -3.96517
306.113,27.43500,      -3.98901
306.63,27.48667,      -4.01495
307.147,27.53833,      -4.03899
307.663,27.59000,      -4.06473
308.18,27.64167,      -4.09037
308.698,27.69333,      -4.11471
309.216,27.74500,      -4.14025
309.731,27.79667,      -4.16459
310.249,27.84833,      -4.19073
310.767,27.90000,      -4.21567
311.281,27.95167,      -4.24251
311.8,28.00333,      -4.26695
312.315,28.05500,      -4.29429
312.83,28.10667,      -4.32123
313.348,28.15833,      -4.34707
313.864,28.21000,      -4.37461
314.379,28.26167,      -4.40055
314.896,28.31333,      -4.42849
315.411,28.36500,      -4.45493
315.927,28.41667,      -4.48307
316.445,28.46833,      -4.51171
316.972,28.52000,      -4.53835
317.486,28.57167,      -4.56719
317.998,28.62333,      -4.59363
318.513,28.67500,      -4.62207
319.03,28.72667,      -4.64841
319.546,28.77833,      -4.67505
320.064,28.83000,      -4.70179
320.576,28.88167,      -4.72953
321.09,28.93333,      -4.75697
321.609,28.98500,      -4.78331
322.126,29.03667,      -4.81075
322.641,29.08833,      -4.83559
323.157,29.14000,      -4.86273
323.675,29.19167,      -4.88717
324.19,29.24333,      -4.91261
324.706,29.29500,      -4.93605
325.223,29.34667,      -4.96069
325.739,29.39833,      -4.98563
326.255,29.45000,      -5.00827
326.772,29.50167,      -5.03081
327.29,29.55333,      -5.05245
327.804,29.60500,      -5.07559
328.319,29.65667,      -5.09753
328.832,29.70833,      -5.11977
329.348,29.76000,      -5.14021
329.863,29.81167,      -5.16074
330.383,29.86333,      -5.18008
330.899,29.91500,      -5.19852
331.415,29.96667,      -5.21776
331.934,30.01833,      -5.23640
332.452,30.07000,      -5.25484
332.969,30.12167,      -5.27178
333.486,30.17333,      -5.29021
334.003,30.22500,      -5.30715
334.517,30.27667,      -5.32319
335.037,30.32833,      -5.33463
335.553,30.38000,      -5.35727
336.071,30.43167,      -5.37411
336.584,30.48333,      -5.38445
337.102,30.53500,      -5.39648
337.618,30.58667,      -5.41802
338.135,30.63833,      -5.42926
338.649,30.69000,      -5.45290
339.166,30.74167,      -5.46334
339.682,30.79333,      -5.47778
340.199,30.84500,      -5.49641
340.713,30.89667,      -5.50865
341.226,30.94833,      -5.52079
341.746,31.00000,      -5.53983
342.26,31.05167,      -5.55517
342.778,31.10333,      -5.56670
343.294,31.15500,      -5.57864
343.812,31.20667,      -5.60058
344.325,31.25833,      -5.61412
344.84,31.31000,      -5.62615
345.358,31.36167,      -5.63909
345.871,31.41333,      -5.66383
346.39,31.46500,      -5.67376
346.906,31.51667,      -5.68470
347.424,31.56833,      -5.69664
347.941,31.62000,      -5.72127
348.459,31.67167,      -5.73091
348.976,31.72333,      -5.74215
349.493,31.77500,      -5.75328
350.011,31.82667,      -5.77022
350.524,31.87833,      -5.78736
351.045,31.93000,      -5.79819
351.558,31.98167,      -5.80963
352.072,32.03333,      -5.82847
352.592,32.08500,      -5.84360
353.109,32.13667,      -5.85433
353.621,32.18833,      -5.86647
354.136,32.24000,      -5.87801
354.656,32.29167,      -5.89494
355.173,32.34333,      -5.91228
355.688,32.39500,      -5.92351
356.203,32.44667,      -5.93445
356.721,32.49833,      -5.94698
357.239,32.55000,      -5.96202
357.753,32.60167,      -5.98145
358.27,32.65333,      -5.99189
358.788,32.70500,      -6.00262
359.302,32.75667,      -6.01486
359.818,32.80833,      -6.02659
360.334,32.86000,      -6.03963
360.85,32.91167,      -6.05266
361.366,32.96333,      -6.07429
361.882,33.01500,      -6.08383
362.4,33.06667,      -6.09486
362.917,33.11833,      -6.10729
363.434,33.17000,      -6.11972
363.953,33.22167,      -6.13266
364.471,33.27333,      -6.14469
364.991,33.32500,      -6.15742
365.507,33.37667,      -6.17925
366.021,33.42833,      -6.18819
366.536,33.48000,      -6.19842
367.052,33.53167,      -6.21015
367.568,33.58333,      -6.22259
368.082,33.63500,      -6.23442
368.599,33.68667,      -6.24715
369.114,33.73833,      -6.25938
369.633,33.79000,      -6.27221
370.151,33.84167,      -6.28424
370.667,33.89333,      -6.29678
371.184,33.94500,      -6.30851
371.699,33.99667,      -6.33264
372.217,34.04833,      -6.34087
372.732,34.10000,      -6.35050
373.251,34.15167,      -6.36133
373.765,34.20333,      -6.37226
374.284,34.25500,      -6.38479
374.798,34.30667,      -6.39672
375.316,34.35833,      -6.40955
375.833,34.41000,      -6.42058
376.347,34.46167,      -6.43301
376.863,34.51333,      -6.44544
377.376,34.56500,      -6.45697
377.894,34.61667,      -6.46980
378.411,34.66833,      -6.48083
378.927,34.72000,      -6.49356
379.441,34.77167,      -6.50549
379.957,34.82333,      -6.51811
380.472,34.87500,      -6.52994
380.988,34.92667,      -6.54197
381.506,34.97833,      -6.55380
382.021,35.03000,      -6.56483
382.537,35.08167,      -6.57695
383.055,35.13333,      -6.58848
383.567,35.18500,      -6.60081
384.083,35.23667,      -6.61274
384.6,35.28833,      -6.62516
385.116,35.34000,      -6.63639
385.633,35.39167,      -6.64861
386.147,35.44333,      -6.66024
386.662,35.49500,      -6.67217
387.177,35.54667,      -6.68449
387.692,35.59833,      -6.69592
388.208,35.65000,      -6.70785
388.727,35.70167,      -6.71887
389.241,35.75333,      -6.73099
389.758,35.80500,      -6.74272
390.275,35.85667,      -6.75354
390.791,35.90833,      -6.76597
391.306,35.96000,      -6.77719
391.824,36.01167,      -6.78912
392.343,36.06333,      -6.79984
392.863,36.11500,      -6.81146
393.382,36.16667,      -6.82238
393.902,36.21833,      -6.83360
394.417,36.27000,      -6.84453
394.936,36.32167,      -6.85615
395.452,36.37333,      -6.86767
395.968,36.42500,      -6.87830
396.482,36.47667,      -6.89002
396.999,36.52833,      -6.90094
397.513,36.58000,      -6.91237
398.027,36.63167,      -6.92319
398.544,36.68333,      -6.93421
399.058,36.73500,      -6.94563
399.575,36.78667,      -6.95655
400.092,36.83833,      -6.96757
400.607,36.89000,      -6.97829
401.125,36.94167,      -6.98901
401.639,36.99333,      -6.99963
402.155,37.04500,      -7.01125
402.671,37.09667,      -7.02127
403.187,37.14833,      -7.03199
403.704,37.20000,      -7.04181
404.224,37.25167,      -7.05243
404.742,37.30333,      -7.06245
405.256,37.35500,      -7.07207
405.774,37.40667,      -7.08218
406.293,37.45833,      -7.09120
406.809,37.51000,      -7.10152
407.324,37.56167,      -7.11084
407.839,37.61333,      -7.12096
408.356,37.66500,      -7.13118
408.872,37.71667,      -7.14160
409.385,37.76833,      -7.15272
409.9,37.82000,      -7.16264
410.417,37.87167,      -7.17245
410.931,37.92333,      -7.18187
411.446,37.97500,      -7.19239
411.959,38.02667,      -7.20321
412.472,38.07833,      -7.21403
412.99,38.13000,      -7.22364
413.509,38.18167,      -7.23176
414.028,38.23333,      -7.24047
414.543,38.28500,      -7.24969
415.063,38.33667,      -7.25981
415.579,38.38833,      -7.26923
416.094,38.44000,      -7.27904
416.613,38.49167,      -7.28776
417.133,38.54333,      -7.29637
417.648,38.59500,      -7.30439
418.167,38.64667,      -7.31410
418.685,38.69833,      -7.32412
419.2,38.75000,      -7.33394
419.716,38.80167,      -7.34455
420.23,38.85333,      -7.35387
420.742,38.90500,      -7.36329
421.26,38.95667,      -7.37210
421.777,39.00833,      -7.38162
422.291,39.06000,      -7.39093
422.81,39.11167,      -7.39955
423.327,39.16333,      -7.40846
423.844,39.21500,      -7.41638
424.362,39.26667,      -7.42579
424.879,39.31833,      -7.43510
425.396,39.37000,      -7.44452
425.911,39.42167,      -7.45293
426.428,39.47333,      -7.46195
426.944,39.52500,      -7.47086
427.459,39.57667,      -7.47918
427.977,39.62833,      -7.48819
428.492,39.68000,      -7.49711
429.007,39.73167,      -7.50652
429.526,39.78333,      -7.51493
430.042,39.83500,      -7.52364
430.562,39.88667,      -7.53145
431.08,39.93833,      -7.54046
431.593,39.99000,      -7.55008
432.106,40.04167,      -7.55880
432.622,40.09333,      -7.56791
433.141,40.14500,      -7.57652
433.656,40.19667,      -7.58564
434.174,40.24833,      -7.59355
434.688,40.30000,      -7.60186
435.202,40.35167,      -7.60967
435.718,40.40333,      -7.61808
436.237,40.45500,      -7.62609
436.752,40.50667,      -7.63401
437.268,40.55833,      -7.64382
437.782,40.61000,      -7.65273
438.3,40.66167,      -7.66184
438.814,40.71333,      -7.66955
439.331,40.76500,      -7.67697
439.845,40.81667,      -7.68488
440.362,40.86833,      -7.69289
440.879,40.92000,      -7.70120
441.391,40.97167,      -7.70921
441.908,41.02333,      -7.71672
442.427,41.07500,      -7.72453
442.943,41.12667,      -7.73214
443.463,41.17833,      -7.73944
443.978,41.23000,      -7.74766
444.493,41.28167,      -7.75557
445.007,41.33333,      -7.76328
445.523,41.38500,      -7.77069
446.04,41.43667,      -7.77800
446.553,41.48833,      -7.78601
447.075,41.54000,      -7.79291
447.594,41.59167,      -7.79972
448.109,41.64333,      -7.80593
448.624,41.69500,      -7.81334
449.141,41.74667,      -7.82005
449.658,41.79833,      -7.82686
450.173,41.85000,      -7.83387
450.691,41.90167,      -7.84027
451.208,41.95333,      -7.84768
451.723,42.00500,      -7.85459
452.239,42.05667,      -7.86180
452.753,42.10833,      -7.86791
453.269,42.16000,      -7.87412
453.787,42.21167,      -7.88043
454.3,42.26333,      -7.88734
454.816,42.31500,      -7.89394
455.331,42.36667,      -7.89975
455.848,42.41833,      -7.90516
456.365,42.47000,      -7.91096
456.88,42.52167,      -7.91747
457.397,42.57333,      -7.92357
457.916,42.62500,      -7.93018
458.432,42.67667,      -7.93609
458.948,42.72833,      -7.94279
459.465,42.78000,      -7.94890
459.983,42.83167,      -7.95400
460.5,42.88333,      -7.95971
461.018,42.93500,      -7.96541
461.535,42.98667,      -7.97122
462.052,43.03833,      -7.97613
462.565,43.09000,      -7.98184
463.08,43.14167,      -7.98785
463.59,43.19333,      -7.99365
464.103,43.24500,      -7.99976
464.622,43.29667,      -8.00446
465.138,43.34833,      -8.00946
465.655,43.40000,      -8.01407
466.172,43.45167,      -8.01947
466.689,43.50333,      -8.02438
467.207,43.55500,      -8.02878
467.723,43.60667,      -8.03298
468.241,43.65833,      -8.03729
468.759,43.71000,      -8.04229
469.274,43.76167,      -8.04680
469.788,43.81333,      -8.05150
470.306,43.86500,      -8.05571
470.823,43.91667,      -8.06061
471.338,43.96833,      -8.06551
471.852,44.02000,      -8.07072
472.367,44.07167,      -8.07502
472.879,44.12333,      -8.07923
473.397,44.17500,      -8.08353
473.911,44.22667,      -8.08803
474.427,44.27833,      -8.09284
474.943,44.33000,      -8.09684
475.459,44.38167,      -8.10104
475.974,44.43333,      -8.10484
476.493,44.48500,      -8.10844
477.011,44.53667,      -8.11194
477.528,44.58833,      -8.11614
478.047,44.64000,      -8.12044
478.563,44.69167,      -8.12415
479.083,44.74333,      -8.12795
479.597,44.79500,      -8.13175
480.114,44.84667,      -8.13585
480.628,44.89833,      -8.13926
481.142,44.95000,      -8.14316
481.659,45.00167,      -8.14696
482.172,45.05333,      -8.15066
482.691,45.10500,      -8.15376
483.206,45.15667,      -8.15676
483.726,45.20833,      -8.15986
484.246,45.26000,      -8.16286
484.762,45.31167,      -8.16596
485.279,45.36333,      -8.16936
485.797,45.41500,      -8.17316
486.312,45.46667,      -8.17636
486.83,45.51833,      -8.17956
487.343,45.57000,      -8.18286
487.858,45.62167,      -8.18526
488.377,45.67333,      -8.18866
488.891,45.72500,      -8.19136
489.407,45.77667,      -8.19426
489.924,45.82833,      -8.19696
490.44,45.88000,      -8.19986
490.956,45.93167,      -8.20296
491.47,45.98333,      -8.20646
491.987,46.03500,      -8.20996
492.5,46.08667,      -8.21286
493.017,46.13833,      -8.21585
493.531,46.19000,      -8.21875
494.046,46.24167,      -8.22145
494.565,46.29333,      -8.22395
495.08,46.34500,      -8.22674
495.596,46.39667,      -8.22954
496.115,46.44833,      -8.23244
496.633,46.50000,      -8.23483
497.148,46.55167,      -8.23703
497.666,46.60333,      -8.23993
498.184,46.65500,      -8.24302
498.702,46.70667,      -8.24602
499.219,46.75833,      -8.24852
499.735,46.81000,      -8.25092
500.247,46.86167,      -8.25312
500.766,46.91333,      -8.25611
501.279,46.96500,      -8.25871
501.798,47.01667,      -8.26151
502.312,47.06833,      -8.26420
502.825,47.12000,      -8.26620
503.341,47.17167,      -8.26910
503.858,47.22333,      -8.27139
504.374,47.27500,      -8.27389
504.89,47.32667,      -8.27638
505.406,47.37833,      -8.27928
505.922,47.43000,      -8.28218
506.439,47.48167,      -8.28437
506.955,47.53333,      -8.28657
507.471,47.58500,      -8.28876
507.985,47.63667,      -8.29086
508.499,47.68833,      -8.29266
509.012,47.74000,      -8.29416
509.529,47.79167,      -8.29595
510.04,47.84333,      -8.29825
510.557,47.89500,      -8.30054
511.071,47.94667,      -8.30204
511.589,47.99833,      -8.30363
512.109,48.05000,      -8.30492
512.63,48.10167,      -8.30721
513.148,48.15333,      -8.30971
513.664,48.20500,      -8.31220
514.181,48.25667,      -8.31460
514.697,48.30833,      -8.31699
515.211,48.36000,      -8.31909
515.725,48.41167,      -8.32129
516.241,48.46333,      -8.32298
516.757,48.51500,      -8.32397
517.275,48.56667,      -8.32527
517.792,48.61833,      -8.32666
518.311,48.67000,      -8.32815
518.826,48.72167,      -8.32965
519.342,48.77333,      -8.33174
519.858,48.82500,      -8.33374
520.374,48.87667,      -8.33563
520.89,48.92833,      -8.33712
521.404,48.98000,      -8.33812
521.923,49.03167,      -8.33931
522.438,49.08333,      -8.34060
522.953,49.13500,      -8.34230
523.468,49.18667,      -8.34459
523.985,49.23833,      -8.34688
524.501,49.29000,      -8.34967
525.018,49.34167,      -8.35127
525.533,49.39333,      -8.35256
526.051,49.44500,      -8.35345
526.566,49.49667,      -8.35444
527.079,49.54833,      -8.35564
527.595,49.60000,      -8.35683
528.111,49.65167,      -8.35822
528.624,49.70333,      -8.35952
529.143,49.75500,      -8.36080
529.661,49.80667,      -8.36209
530.179,49.85833,      -8.36328
530.693,49.91000,      -8.36458
531.21,49.96167,      -8.36597
531.726,50.01333,      -8.36726
532.241,50.06500,      -8.36866
532.756,50.11667,      -8.37075
533.273,50.16833,      -8.37294
533.788,50.22000,      -8.37553
534.306,50.27167,      -8.37772
534.821,50.32333,      -8.37921
535.342,50.37500,      -8.38060
535.856,50.42667,      -8.38179
536.371,50.47833,      -8.38268
536.889,50.53000,      -8.38337
537.404,50.58167,      -8.38456
537.925,50.63333,      -8.38534
538.441,50.68500,      -8.38643
538.959,50.73667,      -8.38772
539.477,50.78833,      -8.38962
539.989,50.84000,      -8.39151
540.502,50.89167,      -8.39350
541.015,50.94333,      -8.39579
541.539,50.99500,      -8.39707
542.056,51.04667,      -8.39806
542.576,51.09833,      -8.39885
543.092,51.15000,      -8.39994
543.607,51.20167,      -8.40113
544.123,51.25333,      -8.40272
544.639,51.30500,      -8.40441
545.153,51.35667,      -8.40510
545.669,51.40833,      -8.40569
546.186,51.46000,      -8.40607
546.702,51.51167,      -8.40696
547.218,51.56333,      -8.40795
547.736,51.61500,      -8.40923
548.249,51.66667,      -8.41063
548.763,51.71833,      -8.41311
549.275,51.77000,      -8.41590
549.79,51.82167,      -8.41859
550.308,51.87333,      -8.42018
550.826,51.92500,      -8.42066
551.343,51.97667,      -8.42064
551.864,52.02833,      -8.42043
552.38,52.08000,      -8.42082
552.898,52.13167,      -8.42180
553.413,52.18333,      -8.42349
553.929,52.23500,      -8.42598
554.441,52.28667,      -8.42957
554.958,52.33833,      -8.43165
555.476,52.39000,      -8.43273
555.994,52.44167,      -8.43302
556.513,52.49333,      -8.43290
557.036,52.54500,      -8.43288
557.55,52.59667,      -8.43327
558.067,52.64833,      -8.43406
558.58,52.70000,      -8.43515
559.093,52.75167,      -8.43693
559.608,52.80333,      -8.43892
560.118,52.85500,      -8.44121
560.635,52.90667,      -8.44309
561.148,52.95833,      -8.44427
561.667,53.01000,      -8.44515
562.187,53.06167,      -8.44614
562.705,53.11333,      -8.44692
563.221,53.16500,      -8.44750
563.739,53.21667,      -8.44828
564.253,53.26833,      -8.44937
564.771,53.32000,      -8.45055
565.288,53.37167,      -8.45143
565.804,53.42333,      -8.45222
566.32,53.47500,      -8.45320
566.834,53.52667,      -8.45449
567.352,53.57833,      -8.45567
567.868,53.63000,      -8.45695
568.387,53.68167,      -8.45823
568.906,53.73333,      -8.45931
569.423,53.78500,      -8.46069
569.939,53.83667,      -8.46197
570.458,53.88833,      -8.46345
570.977,53.94000,      -8.46473
571.495,53.99167,      -8.46571
572.011,54.04333,      -8.46639
572.527,54.09500,      -8.46698
573.042,54.14667,      -8.46776
573.556,54.19833,      -8.46894
574.072,54.25000,      -8.47052
574.586,54.30167,      -8.47231
575.1,54.35333,      -8.47389
575.617,54.40500,      -8.47516
576.134,54.45667,      -8.47614
576.652,54.50833,      -8.47702
577.17,54.56000,      -8.47810
577.687,54.61167,      -8.47908
578.205,54.66333,      -8.47996
578.72,54.71500,      -8.48104
579.236,54.76667,      -8.48222
579.752,54.81833,      -8.48310
580.269,54.87000,      -8.48397
580.782,54.92167,      -8.48495
581.297,54.97333,      -8.48643
581.816,55.02500,      -8.48721
582.338,55.07667,      -8.48848
582.854,55.12833,      -8.48946
583.375,55.18000,      -8.49023
583.891,55.23167,      -8.49101
584.407,55.28333,      -8.49199
584.924,55.33500,      -8.49357
585.438,55.38667,      -8.49585
585.954,55.43833,      -8.49832
586.471,55.49000,      -8.50000
586.984,55.54167,      -8.50098
587.5,55.59333,      -8.50166
588.019,55.64500,      -8.50173
588.535,55.69667,      -8.50200
589.052,55.74833,      -8.50228
589.567,55.80000,      -8.50285
590.083,55.85167,      -8.50373
590.596,55.90333,      -8.50521
591.111,55.95500,      -8.50688
591.627,56.00667,      -8.50886
592.144,56.05833,      -8.51063
592.662,56.11000,      -8.51200
593.179,56.16167,      -8.51297
593.699,56.21333,      -8.51375
594.216,56.26500,      -8.51432
594.732,56.31667,      -8.51500
595.251,56.36833,      -8.51547
595.768,56.42000,      -8.51594
596.284,56.47167,      -8.51732
596.798,56.52333,      -8.51919
597.311,56.57500,      -8.52147
597.827,56.62667,      -8.52414
598.342,56.67833,      -8.52601
598.862,56.73000,      -8.52708
599.378,56.78167,      -8.52755
599.899,56.83333,      -8.52812
600.416,56.88500,      -8.52869
600.934,56.93667,      -8.52896
601.451,56.98833,      -8.52983
601.966,57.04000,      -8.53121
602.482,57.09167,      -8.53198
602.998,57.14333,      -8.53285
603.515,57.19500,      -8.53352
604.029,57.24667,      -8.53409
604.547,57.29833,      -8.53496
605.062,57.35000,      -8.53633
605.576,57.40167,      -8.53850
606.092,57.45333,      -8.54107
606.607,57.50500,      -8.54314
607.126,57.55667,      -8.54441
607.642,57.60833,      -8.54487
608.16,57.66000,      -8.54514
608.677,57.71167,      -8.54541
609.195,57.76333,      -8.54608
609.711,57.81500,      -8.54695
610.228,57.86667,      -8.54801
610.745,57.91833,      -8.54888
611.262,57.97000,      -8.54985
611.778,58.02167,      -8.55112
612.296,58.07333,      -8.55218
612.812,58.12500,      -8.55345
613.327,58.17667,      -8.55482
613.846,58.22833,      -8.55709
614.362,58.28000,      -8.55905
614.881,58.33167,      -8.56102
615.399,58.38333,      -8.56218
615.916,58.43500,      -8.56255
616.433,58.48667,      -8.56292
616.945,58.53833,      -8.56348
617.462,58.59000,      -8.56445
617.973,58.64167,      -8.56572
618.485,58.69333,      -8.56739
619,58.74500,      -8.56956
619.515,58.79667,      -8.57192
620.031,58.84833,      -8.57348
620.549,58.90000,      -8.57454
621.068,58.95167,      -8.57521
621.584,59.00333,      -8.57657
622.105,59.05500,      -8.57793
622.622,59.10667,      -8.57850
623.136,59.15833,      -8.57876
623.651,59.21000,      -8.57913
624.172,59.26167,      -8.57969
624.688,59.31333,      -8.58046
625.203,59.36500,      -8.58142
625.719,59.41667,      -8.58308
626.232,59.46833,      -8.58505
626.751,59.52000,      -8.58721
627.266,59.57167,      -8.58867
627.782,59.62333,      -8.58963
628.301,59.67500,      -8.59009
628.82,59.72667,      -8.59076
629.336,59.77833,      -8.59182
629.851,59.83000,      -8.59318
630.369,59.88167,      -8.59454
630.887,59.93333,      -8.59631
631.401,59.98500,      -8.59867
631.918,60.03667,      -8.60063
632.435,60.08833,      -8.60229
632.95,60.14000,      -8.60325
633.466,60.19167,      -8.60421
633.982,60.24333,      -8.60528
634.497,60.29500,      -8.60594
635.016,60.34667,      -8.60660
635.534,60.39833,      -8.60715
636.051,60.45000,      -8.60801
636.566,60.50167,      -8.60878
637.085,60.55333,      -8.60974
637.604,60.60500,      -8.61039
638.118,60.65667,      -8.61096
638.634,60.70833,      -8.61222
639.146,60.76000,      -8.61348
639.661,60.81167,      -8.61444
640.18,60.86333,      -8.61530
640.698,60.91500,      -8.61625
641.211,60.96667,      -8.61691
641.729,61.01833,      -8.61747
642.242,61.07000,      -8.61853
642.759,61.12167,      -8.61949
643.273,61.17333,      -8.62045
643.789,61.22500,      -8.62191
644.307,61.27667,      -8.62357
644.824,61.32833,      -8.62492
645.342,61.38000,      -8.62628
645.857,61.43167,      -8.62724
646.375,61.48333,      -8.62800
646.892,61.53500,      -8.62885
647.411,61.58667,      -8.62941
647.924,61.63833,      -8.62997
648.441,61.69000,      -8.63033
648.956,61.74167,      -8.63048
649.471,61.79333,      -8.63074
649.988,61.84500,      -8.63100
650.505,61.89667,      -8.63125
651.019,61.94833,      -8.63181
651.534,62.00000,      -8.63307
652.05,62.05167,      -8.63563
652.566,62.10333,      -8.63828
653.077,62.15500,      -8.63954
653.596,62.20667,      -8.64010
654.113,62.25833,      -8.63975
654.631,62.31000,      -8.63960
655.146,62.36167,      -8.63976
655.665,62.41333,      -8.64032
656.178,62.46500,      -8.64087
656.693,62.51667,      -8.64183
657.211,62.56833,      -8.64298
657.729,62.62000,      -8.64384
658.243,62.67167,      -8.64429
658.76,62.72333,      -8.64475
659.277,62.77500,      -8.64530
659.794,62.82667,      -8.64576
660.308,62.87833,      -8.64631
660.826,62.93000,      -8.64737
661.341,62.98167,      -8.64802
661.858,63.03333,      -8.64858
662.375,63.08500,      -8.64913
662.89,63.13667,      -8.64978
663.406,63.18833,      -8.65044
663.925,63.24000,      -8.65149
664.441,63.29167,      -8.65214
664.961,63.34333,      -8.65270
665.475,63.39500,      -8.65325
665.993,63.44667,      -8.65370
666.51,63.49833,      -8.65425
667.025,63.55000,      -8.65481
667.542,63.60167,      -8.65546
668.057,63.65333,      -8.65602
668.572,63.70500,      -8.65717
669.088,63.75667,      -8.65802
669.605,63.80833,      -8.65918
670.123,63.86000,      -8.66033
670.641,63.91167,      -8.66138
671.158,63.96333,      -8.66203
671.679,64.01500,      -8.66248
672.192,64.06667,      -8.66273
672.71,64.11833,      -8.66298
673.229,64.17000,      -8.66314
673.743,64.22167,      -8.66369
674.259,64.27333,      -8.66424
674.771,64.32500,      -8.66490
675.288,64.37667,      -8.66555
675.805,64.42833,      -8.66620
676.321,64.48000,      -8.66715
676.839,64.53167,      -8.66780
677.354,64.58333,      -8.66845
677.873,64.63500,      -8.66960
678.39,64.68667,      -8.67035
678.908,64.73833,      -8.67090
679.424,64.79000,      -8.67155
679.941,64.84167,      -8.67211
680.456,64.89333,      -8.67246
680.97,64.94500,      -8.67291
681.486,64.99667,      -8.67346
682,65.04833,      -8.67401
682.517,65.10000,      -8.67476
683.036,65.15167,      -8.67561
683.557,65.20333,      -8.67645
684.074,65.25500,      -8.67700
684.593,65.30667,      -8.67775
685.112,65.35833,      -8.67840
685.631,65.41000,      -8.67895
686.148,65.46167,      -8.67970
686.662,65.51333,      -8.68045
687.179,65.56500,      -8.68110
687.696,65.61667,      -8.68195
688.21,65.66833,      -8.68260
688.729,65.72000,      -8.68305
689.247,65.77167,      -8.68370
689.763,65.82333,      -8.68385
690.279,65.87500,      -8.68450
690.795,65.92667,      -8.68485
691.31,65.97833,      -8.68560
691.827,66.03000,      -8.68625
692.343,66.08167,      -8.68700
692.86,66.13333,      -8.68784
693.379,66.18500,      -8.68849
693.895,66.23667,      -8.68914
694.415,66.28833,      -8.68919
694.93,66.34000,      -8.68954
695.445,66.39167,      -8.69049
695.959,66.44333,      -8.69104
696.475,66.49500,      -8.69169
696.991,66.54667,      -8.69213
697.505,66.59833,      -8.69298
698.02,66.65000,      -8.69373
698.533,66.70167,      -8.69448
699.049,66.75333,      -8.69543
699.568,66.80500,      -8.69617
700.085,66.85667,      -8.69682
700.603,66.90833,      -8.69747
701.121,66.96000,      -8.69791
701.639,67.01167,      -8.69826
702.157,67.06333,      -8.69871
702.675,67.11500,      -8.69926
703.19,67.16667,      -8.69981
703.707,67.21833,      -8.70045
704.221,67.27000,      -8.70100
704.74,67.32167,      -8.70135
705.256,67.37333,      -8.70200
705.774,67.42500,      -8.70244
706.288,67.47667,      -8.70319
706.803,67.52833,      -8.70374
707.319,67.58000,      -8.70419
707.836,67.63167,      -8.70484
708.351,67.68333,      -8.70559
708.867,67.73500,      -8.70603
709.384,67.78667,      -8.70648
709.904,67.83833,      -8.70712
710.419,67.89000,      -8.70797
710.937,67.94167,      -8.70832
711.458,67.99333,      -8.70866
711.977,68.04500,      -8.70901
712.491,68.09667,      -8.70916
713.01,68.14833,      -8.70971
713.524,68.20000,      -8.71036
714.037,68.25167,      -8.71111
714.553,68.30333,      -8.71185
715.064,68.35500,      -8.71260
715.583,68.40667,      -8.71325
716.099,68.45833,      -8.71340
716.616,68.51000,      -8.71344
717.132,68.56167,      -8.71459
717.652,68.61333,      -8.71533
718.167,68.66500,      -8.71588
718.683,68.71667,      -8.71633
719.203,68.76833,      -8.71687
719.717,68.82000,      -8.71742
720.233,68.87167,      -8.71807
720.751,68.92333,      -8.71862
721.265,68.97500,      -8.71926
721.783,69.02667,      -8.71961
722.302,69.07833,      -8.71906
722.814,69.13000,      -8.71900
723.328,69.18167,      -8.72035
723.845,69.23333,      -8.72210
724.362,69.28500,      -8.72264
724.88,69.33667,      -8.72299
725.398,69.38833,      -8.72333
725.92,69.44000,      -8.72367
726.437,69.49167,      -8.72402
726.959,69.54333,      -8.72436
727.48,69.59500,      -8.72471
727.998,69.64667,      -8.72525
728.518,69.69833,      -8.72580
729.03,69.75000,      -8.72625
729.544,69.80167,      -8.72660
730.06,69.85333,      -8.72694
730.57,69.90500,      -8.72759
731.084,69.95667,      -8.72814
731.601,70.00833,      -8.72918
732.119,70.06000,      -8.72972
732.638,70.11167,      -8.73057
733.152,70.16333,      -8.73091
733.669,70.21500,      -8.73136
734.184,70.26667,      -8.73171
734.7,70.31833,      -8.73205
735.216,70.37000,      -8.73259
735.733,70.42167,      -8.73304
736.248,70.47333,      -8.73338
736.763,70.52500,      -8.73383
737.277,70.57667,      -8.73427
737.793,70.62833,      -8.73492
738.311,70.68000,      -8.73536
738.827,70.73167,      -8.73570
739.345,70.78333,      -8.73634
739.863,70.83500,      -8.73669
740.38,70.88667,      -8.73723
740.895,70.93833,      -8.73768
741.412,70.99000,      -8.73792
741.928,71.04167,      -8.73836
742.444,71.09333,      -8.73891
742.957,71.14500,      -8.73925
743.477,71.19667,      -8.73959
743.993,71.24833,      -8.74003
744.509,71.30000,      -8.74038
745.029,71.35167,      -8.74082
745.544,71.40333,      -8.74146
746.061,71.45500,      -8.74200
746.579,71.50667,      -8.74264
747.093,71.55833,      -8.74299
747.611,71.61000,      -8.74343
748.128,71.66167,      -8.74417
748.639,71.71333,      -8.74501
749.151,71.76500,      -8.74586
749.668,71.81667,      -8.74640
750.179,71.86833,      -8.74684
750.695,71.92000,      -8.74708
751.212,71.97167,      -8.74742
751.727,72.02333,      -8.74776
752.244,72.07500,      -8.74790
752.76,72.12667,      -8.74804
753.28,72.17833,      -8.74838
753.797,72.23000,      -8.74892
754.312,72.28167,      -8.74946
754.831,72.33333,      -8.75010
755.346,72.38500,      -8.75064
755.861,72.43667,      -8.75128
756.379,72.48833,      -8.75171
756.891,72.54000,      -8.75226
757.409,72.59167,      -8.75279
757.922,72.64333,      -8.75343
758.44,72.69500,      -8.75397
758.956,72.74667,      -8.75411
759.473,72.79833,      -8.75445
759.989,72.85000,      -8.75498
760.506,72.90167,      -8.75562
761.024,72.95333,      -8.75626
761.537,73.00500,      -8.75700
762.052,73.05667,      -8.75754
762.569,73.10833,      -8.75797
763.082,73.16000,      -8.75821
763.602,73.21167,      -8.75854
764.121,73.26333,      -8.75878
764.643,73.31500,      -8.75881
765.161,73.36667,      -8.75905
765.677,73.41833,      -8.75948
766.194,73.47000,      -8.76012
766.711,73.52167,      -8.76046
767.221,73.57333,      -8.76089
767.738,73.62500,      -8.76183
768.256,73.67667,      -8.76296
768.769,73.72833,      -8.76380
769.284,73.78000,      -8.76454
769.8,73.83167,      -8.76517
770.315,73.88333,      -8.76570
770.835,73.93500,      -8.76603
771.354,73.98667,      -8.76616
771.869,74.03833,      -8.76670
772.386,74.09000,      -8.76713
772.905,74.14167,      -8.76736
773.425,74.19333,      -8.76780
773.94,74.24500,      -8.76813
774.454,74.29667,      -8.76846
774.97,74.34833,      -8.76870
775.485,74.40000,      -8.76883
776.003,74.45167,      -8.76906
776.52,74.50333,      -8.76979
777.04,74.55500,      -8.77062
777.555,74.60667,      -8.77135
778.076,74.65833,      -8.77218
778.592,74.71000,      -8.77261
779.11,74.76167,      -8.77264
779.626,74.81333,      -8.77277
780.142,74.86500,      -8.77310
780.654,74.91667,      -8.77313
781.174,74.96833,      -8.77366
781.693,75.02000,      -8.77419
782.207,75.07167,      -8.77452
782.727,75.12333,      -8.77494
783.245,75.17500,      -8.77557
783.763,75.22667,      -8.77610
784.277,75.27833,      -8.77693
784.793,75.33000,      -8.77766
785.309,75.38167,      -8.77828
785.823,75.43333,      -8.77881
786.34,75.48500,      -8.77954
786.859,75.53667,      -8.78006
787.378,75.58833,      -8.78059
787.895,75.64000,      -8.78091
788.41,75.69167,      -8.78104
788.927,75.74333,      -8.78106
789.447,75.79500,      -8.78109
789.965,75.84667,      -8.78101
790.484,75.89833,      -8.78113
790.999,75.95000,      -8.78116
791.518,76.00167,      -8.78138
792.035,76.05333,      -8.78131
792.549,76.10500,      -8.78143
793.065,76.15667,      -8.78176
793.583,76.20833,      -8.78228
794.101,76.26000,      -8.78310
794.621,76.31167,      -8.78382
795.136,76.36333,      -8.78474
795.649,76.41500,      -8.78557
796.161,76.46667,      -8.78639
796.674,76.51833,      -8.78742
797.19,76.57000,      -8.78824
797.702,76.62167,      -8.78906
798.223,76.67333,      -8.78958
798.742,76.72500,      -8.79020
799.211,76.77167,      -8.79063