File: data-raw/TGA/R_TGA.csv
#EXPORTTYPE:                 ,DATA SINGLE
#FILE:                       ,R.ngb-st9
#FORMAT:                     ,NETZSCH5
#FTYPE:                      ,ANSI
#IDENTITY:                   ,Saras
#DECIMAL:                    ,POINT
#SEPARATOR:                  ,COMMA
#MTYPE:                      ,TG
#INSTRUMENT:                 ,NETZSCH TG 209F1 Libra
#PROJECT:                    ,IL
#DATE/TIME:                  ,22/03/2017 9:43:44 AM (UTC+11)
#CORR. FILE:                 ,
#TEMPCAL:                    ,TCALZERO.TCX
#LABORATORY:                 ,Capture Lab
#OPERATOR:                   ,NJN
#REMARK:                     ,Training run
#SAMPLE:                     ,R
#SAMPLE MASS /mg:            ,18.8541
#MATERIAL:                   ,zeolite
#TYPE OF CRUCIBLE:           ,Al2O3
#SAMPLE CRUCIBLE MASS /mg:   ,311.2628
#REFERENCE CRUCIBLE MASS /mg:,
#M.RANGE /mg:                ,2000
#CORR. CODE:                 ,090
#RANGE:                      ,32°C/10.0(K/min)/800°C
#SEGMENT:                    ,S1/1
#SEG. 1:                     ,32°C/10.0(K/min)/800°C

##Temp./°C,Time/min,Mass loss/mg
 31.52600, 0.00000,-2.518503e-003
 31.52800, 0.05167,-4.577248e-003
 31.59400, 0.10333,-5.942331e-003
 31.91500, 0.15500,-4.905190e-003
 32.31300, 0.20667,-4.376256e-003
 32.67400, 0.25833,-5.604370e-003
 33.04500, 0.31000,-7.336123e-003
 33.46600, 0.36167,-8.837089e-003
 33.94000, 0.41333,-1.045656e-002
 34.43100, 0.46500,-1.217960e-002
 34.95500, 0.51667,-1.413222e-002
 35.50100, 0.56833,-1.612589e-002
 36.07900, 0.62000,-1.869337e-002
 36.67400, 0.67167,-2.188749e-002
 37.29400, 0.72333,-2.554630e-002
 37.92100, 0.77500,-2.924443e-002
 38.56100, 0.82667,-3.308823e-002
 39.20900, 0.87833,-3.707797e-002
 39.86400, 0.93000,-4.118268e-002
 40.52400, 0.98167,-4.563575e-002
 41.17400, 1.03333,-4.977404e-002
 41.83200, 1.08500,-5.430901e-002
 42.47400, 1.13667,-5.879498e-002
 43.11200, 1.18833,-6.339183e-002
 43.74500, 1.24000,-6.854185e-002
 44.36900, 1.29167,-7.357164e-002
 44.98200, 1.34333,-7.914823e-002
 45.58200, 1.39500,-8.452734e-002
 46.17600, 1.44667,-9.118348e-002
 46.75700, 1.49833,-9.721104e-002
 47.33100, 1.55000,      -0.10360
 47.89300, 1.60167,      -0.10983
 48.44400, 1.65333,      -0.11657
 48.98900, 1.70500,      -0.12352
 49.52400, 1.75667,      -0.13031
 50.05700, 1.80833,      -0.13770
 50.57600, 1.86000,      -0.14467
 51.08900, 1.91167,      -0.15218
 51.59800, 1.96333,      -0.15978
 52.10300, 2.01500,      -0.16691
 52.60500, 2.06667,      -0.17445
 53.10400, 2.11833,      -0.18283
 53.60300, 2.17000,      -0.19092
 54.09900, 2.22167,      -0.19922
 54.59100, 2.27333,      -0.20760
 55.08700, 2.32500,      -0.21593
 55.58000, 2.37667,      -0.22515
 56.07500, 2.42833,      -0.23387
 56.57200, 2.48000,      -0.24352
 57.06900, 2.53167,      -0.25238
 57.56900, 2.58333,      -0.26083
 58.07100, 2.63500,      -0.27009
 58.57600, 2.68667,      -0.27897
 59.07900, 2.73833,      -0.28862
 59.58400, 2.79000,      -0.29756
 60.09600, 2.84167,      -0.30747
 60.60500, 2.89333,      -0.31682
 61.11800, 2.94500,      -0.32689
 61.63300, 2.99667,      -0.33665
 62.14700, 3.04833,      -0.34689
 62.66500, 3.10000,      -0.35726
 63.18400, 3.15167,      -0.36701
 63.70400, 3.20333,      -0.37715
 64.21800, 3.25500,      -0.38755
 64.73700, 3.30667,      -0.39809
 65.25800, 3.35833,      -0.40812
 65.77700, 3.41000,      -0.41885
 66.30200, 3.46167,      -0.42981
 66.82400, 3.51333,      -0.44003
 67.35100, 3.56500,      -0.45057
 67.87200, 3.61667,      -0.46078
 68.39400, 3.66833,      -0.47140
 68.91900, 3.72000,      -0.48153
 69.44200, 3.77167,      -0.49282
 69.96200, 3.82333,      -0.50302
 70.48700, 3.87500,      -0.51394
 71.01200, 3.92667,      -0.52487
 71.52900, 3.97833,      -0.53505
 72.05000, 4.03000,      -0.54584
 72.57100, 4.08167,      -0.55605
 73.08900, 4.13333,      -0.56716
 73.61100, 4.18500,      -0.57735
 74.13300, 4.23667,      -0.58847
 74.65100, 4.28833,      -0.59846
 75.16600, 4.34000,      -0.60913
 75.68700, 4.39167,      -0.61994
 76.20400, 4.44333,      -0.62955
 76.72600, 4.49500,      -0.64037
 77.24500, 4.54667,      -0.64997
 77.76100, 4.59833,      -0.66006
 78.28100, 4.65000,      -0.66987
 78.79900, 4.70167,      -0.67986
 79.31700, 4.75333,      -0.68935
 79.83200, 4.80500,      -0.69905
 80.34900, 4.85667,      -0.70883
 80.86600, 4.90833,      -0.71834
 81.38500, 4.96000,      -0.72795
 81.90100, 5.01167,      -0.73684
 82.41400, 5.06333,      -0.74612
 82.93200, 5.11500,      -0.75493
 83.44800, 5.16667,      -0.76391
 83.96800, 5.21833,      -0.77232
 84.48400, 5.27000,      -0.78101
 85.00000, 5.32167,      -0.78981
 85.51400, 5.37333,      -0.79780
 86.03200, 5.42500,      -0.80640
 86.54900, 5.47667,      -0.81450
 87.07100, 5.52833,      -0.82292
 87.58700, 5.58000,      -0.83040
 88.10800, 5.63167,      -0.83850
 88.62300, 5.68333,      -0.84629
 89.14000, 5.73500,      -0.85298
 89.65600, 5.78667,      -0.86056
 90.17500, 5.83833,      -0.86777
 90.69200, 5.89000,      -0.87536
 91.20900, 5.94167,      -0.88206
 91.72600, 5.99333,      -0.88954
 92.24500, 6.04500,      -0.89653
 92.76200, 6.09667,      -0.90384
 93.27600, 6.14833,      -0.91071
 93.79500, 6.20000,      -0.91721
 94.31400, 6.25167,      -0.92331
 94.83500, 6.30333,      -0.92932
 95.34800, 6.35500,      -0.93579
 95.86600, 6.40667,      -0.94188
 96.38500, 6.45833,      -0.94787
 96.90100, 6.51000,      -0.95336
 97.41900, 6.56167,      -0.95926
 97.93600, 6.61333,      -0.96485
 98.45200, 6.66500,      -0.97033
 98.97100, 6.71667,      -0.97564
 99.48800, 6.76833,      -0.98072
100.007, 6.82000,      -0.98612
100.521, 6.87167,      -0.99123
101.037, 6.92333,      -0.99644
101.553, 6.97500,      -1.00124
102.073, 7.02667,      -1.00617
102.585, 7.07833,      -1.01077
103.106, 7.13000,      -1.01569
103.619, 7.18167,      -1.02019
104.137, 7.23333,      -1.02390
104.654, 7.28500,      -1.02801
105.17, 7.33667,      -1.03201
105.688, 7.38833,      -1.03652
106.202, 7.44000,      -1.04031
106.72, 7.49167,      -1.04422
107.232, 7.54333,      -1.04790
107.751, 7.59500,      -1.05191
108.268, 7.64667,      -1.05600
108.783, 7.69833,      -1.05950
109.297, 7.75000,      -1.06338
109.81, 7.80167,      -1.06677
110.327, 7.85333,      -1.07067
110.841, 7.90500,      -1.07385
111.356, 7.95667,      -1.07715
111.872, 8.00833,      -1.08014
112.387, 8.06000,      -1.08313
112.902, 8.11167,      -1.08612
113.416, 8.16333,      -1.08869
113.935, 8.21500,      -1.09130
114.453, 8.26667,      -1.09388
114.969, 8.31833,      -1.09677
115.486, 8.37000,      -1.09974
116.005, 8.42167,      -1.10274
116.526, 8.47333,      -1.10562
117.042, 8.52500,      -1.10849
117.559, 8.57667,      -1.11118
118.074, 8.62833,      -1.11354
118.593, 8.68000,      -1.11611
119.108, 8.73167,      -1.11848
119.627, 8.78333,      -1.12156
120.136, 8.83500,      -1.12400
120.654, 8.88667,      -1.12649
121.169, 8.93833,      -1.12896
121.684, 8.99000,      -1.13143
122.202, 9.04167,      -1.13390
122.718, 9.09333,      -1.13626
123.234, 9.14500,      -1.13843
123.752, 9.19667,      -1.14090
124.267, 9.24833,      -1.14336
124.784, 9.30000,      -1.14583
125.298, 9.35167,      -1.14849
125.816, 9.40333,      -1.15095
126.33, 9.45500,      -1.15361
126.843, 9.50667,      -1.15646
127.361, 9.55833,      -1.15882
127.878, 9.61000,      -1.16098
128.394, 9.66167,      -1.16345
128.909, 9.71333,      -1.16640
129.427, 9.76500,      -1.16885
129.94, 9.81667,      -1.17171
130.458, 9.86833,      -1.17436
130.973, 9.92000,      -1.17711
131.49, 9.97167,      -1.18007
132.007,10.02333,      -1.18263
132.523,10.07500,      -1.18548
133.04,10.12667,      -1.18813
133.556,10.17833,      -1.19108
134.074,10.23000,      -1.19393
134.592,10.28167,      -1.19688
135.11,10.33333,      -1.19963
135.627,10.38500,      -1.20268
136.141,10.43667,      -1.20562
136.66,10.48833,      -1.20877
137.177,10.54000,      -1.21241
137.693,10.59167,      -1.21566
138.214,10.64333,      -1.21911
138.729,10.69500,      -1.22255
139.248,10.74667,      -1.22589
139.767,10.79833,      -1.22893
140.285,10.85000,      -1.23238
140.803,10.90167,      -1.23611
141.316,10.95333,      -1.23955
141.831,11.00500,      -1.24318
142.35,11.05667,      -1.24683
142.869,11.10833,      -1.25087
143.385,11.16000,      -1.25471
143.902,11.21167,      -1.25864
144.416,11.26333,      -1.26227
144.936,11.31500,      -1.26622
145.453,11.36667,      -1.27026
145.971,11.41833,      -1.27390
146.487,11.47000,      -1.27763
147.007,11.52167,      -1.28146
147.523,11.57333,      -1.28580
148.038,11.62500,      -1.28993
148.559,11.67667,      -1.29437
149.069,11.72833,      -1.29879
149.586,11.78000,      -1.30352
150.103,11.83167,      -1.30805
150.616,11.88333,      -1.31228
151.135,11.93500,      -1.31692
151.653,11.98667,      -1.32145
152.169,12.03833,      -1.32589
152.687,12.09000,      -1.33012
153.203,12.14167,      -1.33465
153.719,12.19333,      -1.33918
154.237,12.24500,      -1.34381
154.752,12.29667,      -1.34854
155.269,12.34833,      -1.35317
155.791,12.40000,      -1.35830
156.307,12.45167,      -1.36273
156.826,12.50333,      -1.36776
157.344,12.55500,      -1.37249
157.863,12.60667,      -1.37762
158.383,12.65833,      -1.38236
158.9,12.71000,      -1.38768
159.414,12.76167,      -1.39280
159.933,12.81333,      -1.39733
160.45,12.86500,      -1.40245
160.964,12.91667,      -1.40718
161.484,12.96833,      -1.41210
162,13.02000,      -1.41743
162.514,13.07167,      -1.42285
163.03,13.12333,      -1.42838
163.544,13.17500,      -1.43480
164.059,13.22667,      -1.44122
164.575,13.27833,      -1.44696
165.09,13.33000,      -1.45238
165.608,13.38167,      -1.45791
166.123,13.43333,      -1.46374
166.638,13.48500,      -1.46956
167.152,13.53667,      -1.47549
167.671,13.58833,      -1.48122
168.19,13.64000,      -1.48755
168.703,13.69167,      -1.49397
169.222,13.74333,      -1.50020
169.736,13.79500,      -1.50682
170.251,13.84667,      -1.51284
170.768,13.89833,      -1.51977
171.286,13.95000,      -1.52600
171.802,14.00167,      -1.53263
172.32,14.05333,      -1.53905
172.838,14.10500,      -1.54628
173.353,14.15667,      -1.55381
173.868,14.20833,      -1.56083
174.384,14.26000,      -1.56826
174.902,14.31167,      -1.57519
175.418,14.36333,      -1.58302
175.938,14.41500,      -1.59005
176.456,14.46667,      -1.59768
176.976,14.51833,      -1.60510
177.491,14.57000,      -1.61313
178.011,14.62167,      -1.62126
178.525,14.67333,      -1.62888
179.04,14.72500,      -1.63681
179.556,14.77667,      -1.64454
180.072,14.82833,      -1.65277
180.585,14.88000,      -1.66039
181.104,14.93167,      -1.66902
181.621,14.98333,      -1.67706
182.135,15.03500,      -1.68549
182.658,15.08667,      -1.69452
183.172,15.13833,      -1.70304
183.688,15.19000,      -1.71218
184.206,15.24167,      -1.72081
184.724,15.29333,      -1.73034
185.238,15.34500,      -1.73927
185.758,15.39667,      -1.74920
186.274,15.44833,      -1.75854
186.793,15.50000,      -1.76807
187.309,15.55167,      -1.77790
187.826,15.60333,      -1.78683
188.344,15.65500,      -1.79687
188.862,15.70667,      -1.80610
189.382,15.75833,      -1.81614
189.9,15.81000,      -1.82538
190.413,15.86167,      -1.83530
190.931,15.91333,      -1.84484
191.449,15.96500,      -1.85518
191.965,16.01667,      -1.86572
192.484,16.06833,      -1.87625
193,16.12000,      -1.88729
193.516,16.17167,      -1.89843
194.032,16.22333,      -1.90986
194.547,16.27500,      -1.92040
195.065,16.32667,      -1.93154
195.578,16.37833,      -1.94248
196.095,16.43000,      -1.95372
196.607,16.48167,      -1.96606
197.124,16.53333,      -1.97780
197.641,16.58500,      -1.98975
198.157,16.63667,      -2.00149
198.672,16.68833,      -2.01394
199.189,16.74000,      -2.02528
199.709,16.79167,      -2.03753
200.227,16.84333,      -2.04888
200.746,16.89500,      -2.06163
201.265,16.94667,      -2.07477
201.781,16.99833,      -2.08632
202.3,17.05000,      -2.09896
202.814,17.10167,      -2.11051
203.331,17.15333,      -2.12315
203.85,17.20500,      -2.13580
204.367,17.25667,      -2.14895
204.883,17.30833,      -2.16179
205.401,17.36000,      -2.18624
205.917,17.41167,      -2.20008
206.432,17.46333,      -2.21033
206.946,17.51500,      -2.22298
207.462,17.56667,      -2.24753
207.979,17.61833,      -2.25787
208.493,17.67000,      -2.26892
209.012,17.72167,      -2.28147
209.524,17.77333,      -2.30342
210.044,17.82500,      -2.31367
210.559,17.87667,      -2.32632
211.075,17.92833,      -2.34786
211.59,17.98000,      -2.36961
212.107,18.03167,      -2.38006
212.624,18.08333,      -2.39851
213.14,18.13500,      -2.41716
213.657,18.18667,      -2.42831
214.175,18.23833,      -2.45036
214.693,18.29000,      -2.46801
215.208,18.34167,      -2.48526
215.724,18.39333,      -2.50181
216.242,18.44500,      -2.51886
216.759,18.49667,      -2.53571
217.277,18.54833,      -2.55406
217.793,18.60000,      -2.57171
218.309,18.65167,      -2.58986
218.829,18.70333,      -2.60851
219.343,18.75500,      -2.62576
219.861,18.80667,      -2.64581
220.376,18.85833,      -2.66326
220.891,18.91000,      -2.68211
221.407,18.96167,      -2.69966
221.923,19.01333,      -2.71871
222.437,19.06500,      -2.73696
222.953,19.11667,      -2.75621
223.47,19.16833,      -2.77486
223.984,19.22000,      -2.79441
224.503,19.27167,      -2.81386
225.021,19.32333,      -2.83242
225.537,19.37500,      -2.85267
226.052,19.42667,      -2.87122
226.569,19.47833,      -2.89057
227.089,19.53000,      -2.90852
227.604,19.58167,      -2.92817
228.121,19.63333,      -2.94722
228.637,19.68500,      -2.96707
229.157,19.73667,      -2.98743
229.669,19.78833,      -3.00728
230.186,19.84000,      -3.02783
230.704,19.89167,      -3.04728
231.218,19.94333,      -3.06793
231.735,19.99500,      -3.08718
232.25,20.04667,      -3.10674
232.768,20.09833,      -3.12619
233.281,20.15000,      -3.14704
233.8,20.20167,      -3.16709
234.314,20.25333,      -3.18504
234.83,20.30500,      -3.20529
235.35,20.35667,      -3.22445
235.869,20.40833,      -3.24450
236.384,20.46000,      -3.26375
236.905,20.51167,      -3.28411
237.42,20.56333,      -3.30326
237.939,20.61500,      -3.32411
238.455,20.66667,      -3.34466
238.973,20.71833,      -3.36491
239.49,20.77000,      -3.38606
240.004,20.82167,      -3.40592
240.519,20.87333,      -3.42707
241.038,20.92500,      -3.44682
241.551,20.97667,      -3.46817
242.067,21.02833,      -3.48832
242.581,21.08000,      -3.50928
243.1,21.13167,      -3.53053
243.615,21.18333,      -3.55028
244.131,21.23500,      -3.57173
244.65,21.28667,      -3.59139
245.165,21.33833,      -3.61244
245.68,21.39000,      -3.63229
246.202,21.44167,      -3.65434
246.718,21.49333,      -3.67479
247.232,21.54500,      -3.69615
247.752,21.59667,      -3.71810
248.27,21.64833,      -3.73885
248.788,21.70000,      -3.76020
249.304,21.75167,      -3.78106
249.823,21.80333,      -3.80341
250.337,21.85500,      -3.82456
250.853,21.90667,      -3.84681
251.367,21.95833,      -3.86896
251.884,22.01000,      -3.89071
252.401,22.06167,      -3.91427
252.918,22.11333,      -3.93632
253.432,22.16500,      -3.95927
253.945,22.21667,      -3.98102
254.463,22.26833,      -4.00397
254.979,22.32000,      -4.02463
255.496,22.37167,      -4.04688
256.013,22.42333,      -4.06943
256.53,22.47500,      -4.09078
257.05,22.52667,      -4.11373
257.569,22.57833,      -4.13528
258.085,22.63000,      -4.15914
258.599,22.68167,      -4.18139
259.115,22.73333,      -4.20564
259.631,22.78500,      -4.22779
260.148,22.83667,      -4.25164
260.661,22.88833,      -4.27389
261.177,22.94000,      -4.29714
261.695,22.99167,      -4.32059
262.213,23.04333,      -4.34334
262.734,23.09500,      -4.36680
263.248,23.14667,      -4.38935
263.768,23.19833,      -4.41310
264.283,23.25000,      -4.43575
264.798,23.30167,      -4.45980
265.313,23.35333,      -4.48225
265.832,23.40500,      -4.50570
266.343,23.45667,      -4.52965
266.863,23.50833,      -4.55230
267.378,23.56000,      -4.57655
267.897,23.61167,      -4.59940
268.412,23.66333,      -4.62345
268.927,23.71500,      -4.64640
269.445,23.76667,      -4.67135
269.96,23.81833,      -4.69450
270.478,23.87000,      -4.71905
270.992,23.92167,      -4.74360
271.508,23.97333,      -4.76684
272.022,24.02500,      -4.79109
272.538,24.07667,      -4.81444
273.056,24.12833,      -4.83939
273.572,24.18000,      -4.86284
274.088,24.23167,      -4.88739
274.603,24.28333,      -4.91054
275.119,24.33500,      -4.93509
275.638,24.38667,      -4.95974
276.157,24.43833,      -4.98268
276.67,24.49000,      -5.00803
277.19,24.54167,      -5.03178
277.707,24.59333,      -5.05673
278.223,24.64500,      -5.07997
278.741,24.69667,      -5.10612
279.252,24.74833,      -5.13137
279.77,24.80000,      -5.15512
280.284,24.85167,      -5.18116
280.808,24.90333,      -5.20501
281.33,24.95500,      -5.23056
281.859,25.00667,      -5.25480
282.386,25.05833,      -5.28045
282.901,25.11000,      -5.30429
283.411,25.16167,      -5.33034
283.918,25.21333,      -5.35619
284.432,25.26500,      -5.37973
284.945,25.31667,      -5.40518
285.459,25.36833,      -5.42942
285.971,25.42000,      -5.45557
286.487,25.47167,      -5.48032
286.999,25.52333,      -5.50646
287.518,25.57500,      -5.53121
288.031,25.62667,      -5.55785
288.547,25.67833,      -5.58390
289.065,25.73000,      -5.60874
289.584,25.78167,      -5.63548
290.102,25.83333,      -5.66063
290.618,25.88500,      -5.68737
291.131,25.93667,      -5.71292
291.649,25.98833,      -5.74056
292.161,26.04000,      -5.76540
292.679,26.09167,      -5.79295
293.196,26.14333,      -5.81819
293.711,26.19500,      -5.84503
294.229,26.24667,      -5.87217
294.744,26.29833,      -5.89802
295.26,26.35000,      -5.92536
295.774,26.40167,      -5.95110
296.291,26.45333,      -5.97904
296.809,26.50500,      -6.00528
297.326,26.55667,      -6.03272
297.841,26.60833,      -6.06026
298.357,26.66000,      -6.08701
298.876,26.71167,      -6.11505
299.391,26.76333,      -6.14189
299.906,26.81500,      -6.16963
300.424,26.86667,      -6.19707
300.939,26.91833,      -6.22581
301.456,26.97000,      -6.25285
301.971,27.02167,      -6.28209
302.491,27.07333,      -6.31123
303.007,27.12500,      -6.33817
303.527,27.17667,      -6.36761
304.043,27.22833,      -6.39585
304.563,27.28000,      -6.42599
305.078,27.33167,      -6.45393
305.595,27.38333,      -6.48427
306.114,27.43500,      -6.51271
306.634,27.48667,      -6.54315
307.151,27.53833,      -6.57449
307.667,27.59000,      -6.60343
308.183,27.64167,      -6.63447
308.699,27.69333,      -6.66401
309.216,27.74500,      -6.69605
309.729,27.79667,      -6.72679
310.245,27.84833,      -6.75893
310.764,27.90000,      -6.78987
311.276,27.95167,      -6.82311
311.795,28.00333,      -6.85455
312.312,28.05500,      -6.88869
312.828,28.10667,      -6.92283
313.346,28.15833,      -6.95507
313.864,28.21000,      -6.99071
314.381,28.26167,      -7.02375
314.899,28.31333,      -7.06009
315.419,28.36500,      -7.09413
315.931,28.41667,      -7.13177
316.448,28.46833,      -7.16941
316.966,28.52000,      -7.20415
317.48,28.57167,      -7.24189
317.997,28.62333,      -7.27803
318.528,28.67500,      -7.31786
319.043,28.72667,      -7.35611
319.558,28.77833,      -7.39435
320.07,28.83000,      -7.43419
320.583,28.88167,      -7.47493
321.101,28.93333,      -7.51597
321.613,28.98500,      -7.55511
322.128,29.03667,      -7.59705
322.648,29.08833,      -7.63599
323.163,29.14000,      -7.67793
323.676,29.19167,      -7.71687
324.194,29.24333,      -7.75901
324.711,29.29500,      -7.79805
325.227,29.34667,      -7.84009
325.743,29.39833,      -7.88283
326.259,29.45000,      -7.92307
326.772,29.50167,      -7.96591
327.287,29.55333,      -8.00495
327.802,29.60500,      -8.04629
328.32,29.65667,      -8.08403
328.833,29.70833,      -8.12366
329.35,29.76000,      -8.16050
329.866,29.81167,      -8.20004
330.382,29.86333,      -8.23778
330.897,29.91500,      -8.27292
331.413,29.96667,      -8.30986
331.931,30.01833,      -8.34370
332.447,30.07000,      -8.37974
332.963,30.12167,      -8.41278
333.479,30.17333,      -8.44692
333.995,30.22500,      -8.47806
334.507,30.27667,      -8.51000
335.026,30.32833,      -8.54203
335.542,30.38000,      -8.56997
336.057,30.43167,      -8.59991
336.576,30.48333,      -8.62715
337.093,30.53500,      -8.65609
337.609,30.58667,      -8.68272
338.128,30.63833,      -8.71036
338.646,30.69000,      -8.73610
339.161,30.74167,      -8.76284
339.677,30.79333,      -8.78878
340.195,30.84500,      -8.81281
340.71,30.89667,      -8.83805
341.226,30.94833,      -8.86079
341.742,31.00000,      -8.88453
342.259,31.05167,      -8.90667
342.777,31.10333,      -8.92960
343.293,31.15500,      -8.95124
343.811,31.20667,      -8.97318
344.327,31.25833,      -8.99481
344.844,31.31000,      -9.01475
345.361,31.36167,      -9.03679
345.876,31.41333,      -9.05753
346.393,31.46500,      -9.07866
346.908,31.51667,      -9.09840
347.422,31.56833,      -9.11934
347.936,31.62000,      -9.13878
348.452,31.67167,      -9.15911
348.969,31.72333,      -9.17925
349.487,31.77500,      -9.19808
350,31.82667,      -9.21892
350.518,31.87833,      -9.23896
351.033,31.93000,      -9.25949
351.551,31.98167,      -9.27853
352.067,32.03333,      -9.29726
352.586,32.08500,      -9.31420
353.104,32.13667,      -9.33373
353.623,32.18833,      -9.35257
354.139,32.24000,      -9.37071
354.659,32.29167,      -9.38864
355.176,32.34333,      -9.40647
355.695,32.39500,      -9.42531
356.21,32.44667,      -9.44425
356.727,32.49833,      -9.46518
357.242,32.55000,      -9.48332
357.758,32.60167,      -9.50225
358.278,32.65333,      -9.52138
358.793,32.70500,      -9.53982
359.31,32.75667,      -9.55755
359.826,32.80833,      -9.57419
360.342,32.86000,      -9.59472
360.859,32.91167,      -9.61186
361.377,32.96333,      -9.63079
361.892,33.01500,      -9.64922
362.407,33.06667,      -9.66796
362.923,33.11833,      -9.68709
363.439,33.17000,      -9.70403
363.955,33.22167,      -9.72276
364.468,33.27333,      -9.74079
364.984,33.32500,      -9.76023
365.498,33.37667,      -9.77766
366.017,33.42833,      -9.79619
366.532,33.48000,      -9.81342
367.047,33.53167,      -9.83205
367.564,33.58333,      -9.85169
368.083,33.63500,      -9.86932
368.596,33.68667,      -9.88865
369.11,33.73833,      -9.90658
369.632,33.79000,      -9.92521
370.149,33.84167,      -9.94244
370.664,33.89333,      -9.96208
371.179,33.94500,      -9.98081
371.695,33.99667,     -10.00134
372.211,34.04833,     -10.01987
372.728,34.10000,     -10.03820
373.243,34.15167,     -10.05843
373.756,34.20333,     -10.07686
374.274,34.25500,     -10.09549
374.789,34.30667,     -10.11392
375.306,34.35833,     -10.13335
375.826,34.41000,     -10.15158
376.342,34.46167,     -10.17071
376.86,34.51333,     -10.18954
377.38,34.56500,     -10.20757
377.897,34.61667,     -10.22689
378.412,34.66833,     -10.24573
378.924,34.72000,     -10.26576
379.443,34.77167,     -10.28488
379.959,34.82333,     -10.30411
380.476,34.87500,     -10.32224
380.991,34.92667,     -10.34217
381.506,34.97833,     -10.36340
382.022,35.03000,     -10.38243
382.535,35.08167,     -10.40225
383.055,35.13333,     -10.42118
383.571,35.18500,     -10.44131
384.087,35.23667,     -10.46003
384.604,35.28833,     -10.47996
385.119,35.34000,     -10.49879
385.637,35.39167,     -10.51931
386.153,35.44333,     -10.53964
386.672,35.49500,     -10.55866
387.187,35.54667,     -10.57949
387.703,35.59833,     -10.59942
388.218,35.65000,     -10.62034
388.734,35.70167,     -10.64007
389.251,35.75333,     -10.66049
389.766,35.80500,     -10.68042
390.28,35.85667,     -10.70164
390.798,35.90833,     -10.72307
391.313,35.96000,     -10.74309
391.828,36.01167,     -10.76482
392.342,36.06333,     -10.78474
392.86,36.11500,     -10.80546
393.377,36.16667,     -10.82569
393.894,36.21833,     -10.84631
394.411,36.27000,     -10.86523
394.928,36.32167,     -10.88645
395.448,36.37333,     -10.90787
395.965,36.42500,     -10.92800
396.481,36.47667,     -10.94982
396.999,36.52833,     -10.96984
397.514,36.58000,     -10.99066
398.032,36.63167,     -11.00998
398.547,36.68333,     -11.03111
399.063,36.73500,     -11.05093
399.577,36.78667,     -11.07185
400.092,36.83833,     -11.09317
400.605,36.89000,     -11.11299
401.122,36.94167,     -11.13421
401.635,36.99333,     -11.15463
402.152,37.04500,     -11.17635
402.667,37.09667,     -11.19637
403.187,37.14833,     -11.21709
403.708,37.20000,     -11.23610
404.225,37.25167,     -11.25622
404.741,37.30333,     -11.27704
405.26,37.35500,     -11.29636
405.778,37.40667,     -11.31718
406.294,37.45833,     -11.33640
406.807,37.51000,     -11.35682
407.325,37.56167,     -11.37604
407.838,37.61333,     -11.39596
408.355,37.66500,     -11.41458
408.87,37.71667,     -11.43520
409.386,37.76833,     -11.45492
409.903,37.82000,     -11.47334
410.421,37.87167,     -11.49245
410.933,37.92333,     -11.51067
411.45,37.97500,     -11.53089
411.969,38.02667,     -11.55091
412.485,38.07833,     -11.57092
412.997,38.13000,     -11.58834
413.511,38.18167,     -11.60716
414.028,38.23333,     -11.62598
414.544,38.28500,     -11.64259
415.061,38.33667,     -11.66121
415.579,38.38833,     -11.67762
416.096,38.44000,     -11.69624
416.617,38.49167,     -11.71256
417.131,38.54333,     -11.73017
417.645,38.59500,     -11.74809
418.159,38.64667,     -11.76421
418.674,38.69833,     -11.78223
419.189,38.75000,     -11.79914
419.705,38.80167,     -11.81666
420.222,38.85333,     -11.83317
420.74,38.90500,     -11.85089
421.254,38.95667,     -11.86690
421.771,39.00833,     -11.88362
422.291,39.06000,     -11.89323
422.805,39.11167,     -11.90665
423.328,39.16333,     -11.93246
423.842,39.21500,     -11.94538
424.359,39.26667,     -11.95639
424.874,39.31833,     -11.96811
425.39,39.37000,     -11.99002
425.909,39.42167,     -12.00373
426.425,39.47333,     -12.01555
426.943,39.52500,     -12.02806
427.459,39.57667,     -12.05538
427.972,39.62833,     -12.06789
428.489,39.68000,     -12.07951
429.006,39.73167,     -12.09962
429.519,39.78333,     -12.10993
430.037,39.83500,     -12.12185
430.55,39.88667,     -12.14746
431.068,39.93833,     -12.15687
431.585,39.99000,     -12.16819
432.101,40.04167,     -12.18040
432.617,40.09333,     -12.19941
433.138,40.14500,     -12.21502
433.654,40.19667,     -12.22583
434.171,40.24833,     -12.23715
434.688,40.30000,     -12.25856
435.201,40.35167,     -12.27137
435.718,40.40333,     -12.28229
436.233,40.45500,     -12.29380
436.75,40.50667,     -12.30631
437.264,40.55833,     -12.33012
437.778,40.61000,     -12.33853
438.297,40.66167,     -12.34964
438.808,40.71333,     -12.36176
439.327,40.76500,     -12.38516
439.842,40.81667,     -12.39408
440.359,40.86833,     -12.40529
440.872,40.92000,     -12.41920
441.386,40.97167,     -12.43991
441.902,41.02333,     -12.45032
442.418,41.07500,     -12.46043
442.934,41.12667,     -12.47204
443.454,41.17833,     -12.48355
443.971,41.23000,     -12.49506
444.49,41.28167,     -12.50626
445.011,41.33333,     -12.51737
445.532,41.38500,     -12.52768
446.049,41.43667,     -12.53829
446.566,41.48833,     -12.54900
447.083,41.54000,     -12.55991
447.601,41.59167,     -12.57242
448.112,41.64333,     -12.58434
448.625,41.69500,     -12.59675
449.139,41.74667,     -12.60826
449.654,41.79833,     -12.62116
450.172,41.85000,     -12.63237
450.687,41.90167,     -12.64398
451.202,41.95333,     -12.65569
451.718,42.00500,     -12.66669
452.236,42.05667,     -12.67820
452.754,42.10833,     -12.68841
453.269,42.16000,     -12.69942
453.788,42.21167,     -12.70912
454.306,42.26333,     -12.71903
454.824,42.31500,     -12.72904
455.338,42.36667,     -12.73905
455.853,42.41833,     -12.74946
456.37,42.47000,     -12.75866
456.889,42.52167,     -12.76807
457.403,42.57333,     -12.77678
457.918,42.62500,     -12.78638
458.435,42.67667,     -12.79609
458.949,42.72833,     -12.80570
459.467,42.78000,     -12.81430
459.982,42.83167,     -12.82331
460.5,42.88333,     -12.83261
461.018,42.93500,     -12.84162
461.533,42.98667,     -12.85153
462.048,43.03833,     -12.86143
462.563,43.09000,     -12.87184
463.074,43.14167,     -12.88165
463.588,43.19333,     -12.89186
464.102,43.24500,     -12.90056
464.619,43.29667,     -12.90896
465.137,43.34833,     -12.91706
465.658,43.40000,     -12.92326
466.178,43.45167,     -12.92967
466.699,43.50333,     -12.93537
467.217,43.55500,     -12.94237
467.731,43.60667,     -12.95068
468.245,43.65833,     -12.96049
468.757,43.71000,     -12.96960
469.272,43.76167,     -12.97810
469.788,43.81333,     -12.98701
470.305,43.86500,     -12.99511
470.822,43.91667,     -13.00311
471.34,43.96833,     -13.01021
471.853,44.02000,     -13.01752
472.373,44.07167,     -13.02442
472.89,44.12333,     -13.03162
473.406,44.17500,     -13.03862
473.925,44.22667,     -13.04613
474.438,44.27833,     -13.05353
474.954,44.33000,     -13.06073
475.472,44.38167,     -13.06814
475.987,44.43333,     -13.07504
476.503,44.48500,     -13.08194
477.018,44.53667,     -13.08804
477.534,44.58833,     -13.09435
478.05,44.64000,     -13.09985
478.569,44.69167,     -13.10685
479.081,44.74333,     -13.11445
479.597,44.79500,     -13.12086
480.113,44.84667,     -13.12786
480.626,44.89833,     -13.13366
481.142,44.95000,     -13.13976
481.659,45.00167,     -13.14566
482.174,45.05333,     -13.15166
482.689,45.10500,     -13.15726
483.208,45.15667,     -13.16326
483.727,45.20833,     -13.16966
484.245,45.26000,     -13.17576
484.759,45.31167,     -13.18206
485.278,45.36333,     -13.18756
485.795,45.41500,     -13.19366
486.311,45.46667,     -13.19936
486.821,45.51833,     -13.20507
487.343,45.57000,     -13.21016
487.862,45.62167,     -13.21576
488.378,45.67333,     -13.22126
488.894,45.72500,     -13.22636
489.413,45.77667,     -13.23156
489.927,45.82833,     -13.23636
490.44,45.88000,     -13.24146
490.957,45.93167,     -13.24686
491.472,45.98333,     -13.25266
491.987,46.03500,     -13.25806
492.502,46.08667,     -13.26285
493.019,46.13833,     -13.26755
493.535,46.19000,     -13.27185
494.053,46.24167,     -13.27625
494.568,46.29333,     -13.27975
495.087,46.34500,     -13.28384
495.604,46.39667,     -13.28794
496.117,46.44833,     -13.29264
496.633,46.50000,     -13.29734
497.15,46.55167,     -13.30223
497.665,46.60333,     -13.30693
498.18,46.65500,     -13.31153
498.695,46.70667,     -13.31633
499.21,46.75833,     -13.32053
499.726,46.81000,     -13.32462
500.243,46.86167,     -13.32852
500.76,46.91333,     -13.33281
501.275,46.96500,     -13.33731
501.791,47.01667,     -13.34121
502.309,47.06833,     -13.34550
502.823,47.12000,     -13.35000
503.34,47.17167,     -13.35430
503.855,47.22333,     -13.35859
504.369,47.27500,     -13.36299
504.883,47.32667,     -13.36659
505.402,47.37833,     -13.37028
505.916,47.43000,     -13.37318
506.432,47.48167,     -13.37628
506.948,47.53333,     -13.37907
507.465,47.58500,     -13.38196
507.985,47.63667,     -13.38546
508.499,47.68833,     -13.38835
509.016,47.74000,     -13.39175
509.532,47.79167,     -13.39504
510.047,47.84333,     -13.39834
510.564,47.89500,     -13.40184
511.077,47.94667,     -13.40493
511.595,47.99833,     -13.40873
512.115,48.05000,     -13.41162
512.631,48.10167,     -13.41441
513.148,48.15333,     -13.41781
513.664,48.20500,     -13.42120
514.182,48.25667,     -13.42380
514.697,48.30833,     -13.42659
515.214,48.36000,     -13.42949
515.732,48.41167,     -13.43248
516.246,48.46333,     -13.43518
516.763,48.51500,     -13.43807
517.277,48.56667,     -13.44117
517.792,48.61833,     -13.44396
518.309,48.67000,     -13.44685
518.825,48.72167,     -13.44975
519.341,48.77333,     -13.45254
519.855,48.82500,     -13.45544
520.373,48.87667,     -13.45793
520.888,48.92833,     -13.46062
521.408,48.98000,     -13.46301
521.924,49.03167,     -13.46571
522.44,49.08333,     -13.46810
522.958,49.13500,     -13.47049
523.474,49.18667,     -13.47359
523.986,49.23833,     -13.47648
524.506,49.29000,     -13.47907
525.021,49.34167,     -13.48197
525.537,49.39333,     -13.48446
526.053,49.44500,     -13.48685
526.568,49.49667,     -13.48964
527.082,49.54833,     -13.49234
527.599,49.60000,     -13.49453
528.119,49.65167,     -13.49692
528.637,49.70333,     -13.49981
529.152,49.75500,     -13.50250
529.671,49.80667,     -13.50479
530.187,49.85833,     -13.50738
530.704,49.91000,     -13.50977
531.219,49.96167,     -13.51217
531.737,50.01333,     -13.51436
532.254,50.06500,     -13.51675
532.77,50.11667,     -13.51914
533.285,50.16833,     -13.52163
533.799,50.22000,     -13.52423
534.317,50.27167,     -13.52652
534.833,50.32333,     -13.52881
535.348,50.37500,     -13.53140
535.865,50.42667,     -13.53399
536.381,50.47833,     -13.53588
536.897,50.53000,     -13.53827
537.413,50.58167,     -13.54046
537.931,50.63333,     -13.54314
538.448,50.68500,     -13.54554
538.969,50.73667,     -13.54792
539.49,50.78833,     -13.55031
540.006,50.84000,     -13.55190
540.528,50.89167,     -13.55399
541.042,50.94333,     -13.55588
541.558,50.99500,     -13.55797
542.079,51.04667,     -13.55986
542.594,51.09833,     -13.56175
543.11,51.15000,     -13.56364
543.626,51.20167,     -13.56582
544.142,51.25333,     -13.56781
544.66,51.30500,     -13.56990
545.176,51.35667,     -13.57219
545.692,51.40833,     -13.57458
546.208,51.46000,     -13.57707
546.724,51.51167,     -13.57925
547.237,51.56333,     -13.58164
547.755,51.61500,     -13.58393
548.272,51.66667,     -13.58612
548.787,51.71833,     -13.58851
549.304,51.77000,     -13.59079
549.819,51.82167,     -13.59348
550.34,51.87333,     -13.59536
550.854,51.92500,     -13.59745
551.368,51.97667,     -13.59924
551.889,52.02833,     -13.60162
552.409,52.08000,     -13.60421
552.928,52.13167,     -13.60659
553.443,52.18333,     -13.60898
553.962,52.23500,     -13.61087
554.479,52.28667,     -13.61305
554.997,52.33833,     -13.61484
555.511,52.39000,     -13.61673
556.03,52.44167,     -13.61811
556.55,52.49333,     -13.61929
557.068,52.54500,     -13.62108
557.586,52.59667,     -13.62226
558.103,52.64833,     -13.62365
558.62,52.70000,     -13.62503
559.135,52.75167,     -13.62642
559.652,52.80333,     -13.62840
560.168,52.85500,     -13.63119
560.684,52.90667,     -13.63337
561.198,52.95833,     -13.63626
561.715,53.01000,     -13.63944
562.23,53.06167,     -13.64173
562.748,53.11333,     -13.64421
563.267,53.16500,     -13.64659
563.784,53.21667,     -13.64857
564.304,53.26833,     -13.64975
564.824,53.32000,     -13.65043
565.343,53.37167,     -13.65202
565.86,53.42333,     -13.65360
566.376,53.47500,     -13.65559
566.894,53.52667,     -13.65817
567.408,53.57833,     -13.66065
567.924,53.63000,     -13.66224
568.442,53.68167,     -13.66362
568.955,53.73333,     -13.66520
569.469,53.78500,     -13.66728
569.985,53.83667,     -13.66927
570.505,53.88833,     -13.67134
571.022,53.94000,     -13.67292
571.539,53.99167,     -13.67441
572.058,54.04333,     -13.67658
572.577,54.09500,     -13.67886
573.095,54.14667,     -13.68144
573.611,54.19833,     -13.68393
574.128,54.25000,     -13.68621
574.643,54.30167,     -13.68759
575.156,54.35333,     -13.68947
575.672,54.40500,     -13.69075
576.188,54.45667,     -13.69233
576.7,54.50833,     -13.69421
577.217,54.56000,     -13.69609
577.732,54.61167,     -13.69847
578.246,54.66333,     -13.70085
578.763,54.71500,     -13.70343
579.28,54.76667,     -13.70541
579.793,54.81833,     -13.70739
580.312,54.87000,     -13.70906
580.827,54.92167,     -13.71064
581.348,54.97333,     -13.71211
581.868,55.02500,     -13.71299
582.386,55.07667,     -13.71367
582.904,55.12833,     -13.71455
583.419,55.18000,     -13.71563
583.931,55.23167,     -13.71691
584.444,55.28333,     -13.71869
584.96,55.33500,     -13.72116
585.472,55.38667,     -13.72394
585.99,55.43833,     -13.72652
586.505,55.49000,     -13.72859
587.023,55.54167,     -13.72997
587.542,55.59333,     -13.73134
588.058,55.64500,     -13.73242
588.574,55.69667,     -13.73339
589.09,55.74833,     -13.73447
589.608,55.80000,     -13.73554
590.121,55.85167,     -13.73722
590.636,55.90333,     -13.73890
591.152,55.95500,     -13.74147
591.664,56.00667,     -13.74435
592.18,56.05833,     -13.74702
592.694,56.11000,     -13.74930
593.216,56.16167,     -13.75147
593.731,56.21333,     -13.75334
594.245,56.26500,     -13.75492
594.765,56.31667,     -13.75659
595.282,56.36833,     -13.75796
595.799,56.42000,     -13.75883
596.312,56.47167,     -13.75971
596.833,56.52333,     -13.76078
597.346,56.57500,     -13.76216
597.86,56.62667,     -13.76393
598.379,56.67833,     -13.76620
598.894,56.73000,     -13.76857
599.407,56.78167,     -13.77015
599.925,56.83333,     -13.77132
600.441,56.88500,     -13.77189
600.959,56.93667,     -13.77286
601.475,56.98833,     -13.77423
601.993,57.04000,     -13.77560
602.511,57.09167,     -13.77737
603.028,57.14333,     -13.77884
603.543,57.19500,     -13.78011
604.061,57.24667,     -13.78238
604.576,57.29833,     -13.78545
605.095,57.35000,     -13.78812
605.611,57.40167,     -13.79049
606.125,57.45333,     -13.79226
606.642,57.50500,     -13.79383
607.158,57.55667,     -13.79520
607.674,57.60833,     -13.79646
608.192,57.66000,     -13.79723
608.713,57.71167,     -13.79780
609.228,57.76333,     -13.79857
609.748,57.81500,     -13.79984
610.265,57.86667,     -13.80130
610.78,57.91833,     -13.80267
611.296,57.97000,     -13.80414
611.812,58.02167,     -13.80551
612.33,58.07333,     -13.80678
612.842,58.12500,     -13.80915
613.354,58.17667,     -13.81212
613.869,58.22833,     -13.81609
614.384,58.28000,     -13.81965
614.901,58.33167,     -13.82282
615.417,58.38333,     -13.82518
615.932,58.43500,     -13.82705
616.45,58.48667,     -13.82791
616.969,58.53833,     -13.82828
617.487,58.59000,     -13.82884
618.005,58.64167,     -13.82921
618.521,58.69333,     -13.82957
619.038,58.74500,     -13.82994
619.553,58.79667,     -13.83040
620.071,58.84833,     -13.83117
620.589,58.90000,     -13.83333
621.103,58.95167,     -13.83670
621.616,59.00333,     -13.84147
622.13,59.05500,     -13.84573
622.646,59.10667,     -13.84780
623.163,59.15833,     -13.84916
623.677,59.21000,     -13.85033
624.197,59.26167,     -13.85139
624.712,59.31333,     -13.85245
625.231,59.36500,     -13.85311
625.747,59.41667,     -13.85387
626.264,59.46833,     -13.85504
626.776,59.52000,     -13.85620
627.293,59.57167,     -13.85747
627.808,59.62333,     -13.85983
628.323,59.67500,     -13.86269
628.838,59.72667,     -13.86606
629.352,59.77833,     -13.86892
629.868,59.83000,     -13.87158
630.385,59.88167,     -13.87324
630.901,59.93333,     -13.87500
631.418,59.98500,     -13.87647
631.932,60.03667,     -13.87853
632.448,60.08833,     -13.88139
632.966,60.14000,     -13.88405
633.485,60.19167,     -13.88681
634,60.24333,     -13.88907
634.52,60.29500,     -13.89103
635.036,60.34667,     -13.89219
635.555,60.39833,     -13.89325
636.074,60.45000,     -13.89461
636.59,60.50167,     -13.89577
637.109,60.55333,     -13.89733
637.623,60.60500,     -13.89969
638.139,60.65667,     -13.90235
638.654,60.70833,     -13.90531
639.167,60.76000,     -13.90817
639.685,60.81167,     -13.91093
640.199,60.86333,     -13.91389
640.715,60.91500,     -13.91665
641.233,60.96667,     -13.91911
641.748,61.01833,     -13.92157
642.259,61.07000,     -13.92323
642.782,61.12167,     -13.92528
643.297,61.17333,     -13.92724
643.813,61.22500,     -13.92940
644.328,61.27667,     -13.93136
644.844,61.32833,     -13.93352
645.357,61.38000,     -13.93588
645.875,61.43167,     -13.93824
646.393,61.48333,     -13.94079
646.909,61.53500,     -13.94315
647.427,61.58667,     -13.94561
647.947,61.63833,     -13.94816
648.465,61.69000,     -13.95102
648.981,61.74167,     -13.95308
649.497,61.79333,     -13.95543
650.013,61.84500,     -13.95769
650.53,61.89667,     -13.96015
651.043,61.94833,     -13.96291
651.556,62.00000,     -13.96547
652.07,62.05167,     -13.96832
652.586,62.10333,     -13.97108
653.101,62.15500,     -13.97383
653.62,62.20667,     -13.97639
654.137,62.25833,     -13.97864
654.656,62.31000,     -13.98100
655.173,62.36167,     -13.98245
655.69,62.41333,     -13.98421
656.21,62.46500,     -13.98606
656.721,62.51667,     -13.98892
657.238,62.56833,     -13.99178
657.756,62.62000,     -13.99473
658.271,62.67167,     -13.99799
658.786,62.72333,     -14.00084
659.301,62.77500,     -14.00420
659.817,62.82667,     -14.00705
660.332,62.87833,     -14.00931
660.852,62.93000,     -14.01166
661.369,62.98167,     -14.01491
661.886,63.03333,     -14.01707
662.403,63.08500,     -14.01912
662.918,63.13667,     -14.02097
663.435,63.18833,     -14.02343
663.949,63.24000,     -14.02638
664.462,63.29167,     -14.02984
664.977,63.34333,     -14.03399
665.493,63.39500,     -14.03745
666.01,63.44667,     -14.04080
666.524,63.49833,     -14.04395
667.038,63.55000,     -14.04761
667.556,63.60167,     -14.05126
668.068,63.65333,     -14.05502
668.59,63.70500,     -14.05786
669.107,63.75667,     -14.05972
669.621,63.80833,     -14.06087
670.144,63.86000,     -14.06212
670.662,63.91167,     -14.06337
671.178,63.96333,     -14.06472
671.693,64.01500,     -14.06648
672.213,64.06667,     -14.06743
672.729,64.11833,     -14.06868
673.249,64.17000,     -14.07023
673.767,64.22167,     -14.07298
674.286,64.27333,     -14.07653
674.798,64.32500,     -14.08019
675.316,64.37667,     -14.08424
675.831,64.42833,     -14.08749
676.345,64.48000,     -14.09024
676.862,64.53167,     -14.09259
677.381,64.58333,     -14.09534
677.896,64.63500,     -14.09799
678.415,64.68667,     -14.10014
678.932,64.73833,     -14.10160
679.446,64.79000,     -14.10205
679.965,64.84167,     -14.10260
680.482,64.89333,     -14.10305
680.999,64.94500,     -14.10390
681.511,64.99667,     -14.10495
682.027,65.04833,     -14.10670
682.541,65.10000,     -14.10916
683.063,65.15167,     -14.11190
683.573,65.20333,     -14.11566
684.093,65.25500,     -14.11870
684.61,65.30667,     -14.12085
685.127,65.35833,     -14.12230
685.646,65.41000,     -14.12425
686.158,65.46167,     -14.12650
686.674,65.51333,     -14.12885
687.192,65.56500,     -14.13080
687.708,65.61667,     -14.13215
688.227,65.66833,     -14.13320
688.74,65.72000,     -14.13585
689.255,65.77167,     -14.13960
689.771,65.82333,     -14.14295
690.287,65.87500,     -14.14520
690.804,65.92667,     -14.14575
691.323,65.97833,     -14.14600
691.838,66.03000,     -14.14644
692.357,66.08167,     -14.14719
692.875,66.13333,     -14.14844
693.396,66.18500,     -14.14969
693.91,66.23667,     -14.15064
694.431,66.28833,     -14.15068
694.949,66.34000,     -14.15053
695.469,66.39167,     -14.15087
695.988,66.44333,     -14.15172
696.504,66.49500,     -14.15327
697.019,66.54667,     -14.15462
697.531,66.59833,     -14.15627
698.045,66.65000,     -14.15832
698.561,66.70167,     -14.16047
699.079,66.75333,     -14.16182
699.598,66.80500,     -14.16316
700.114,66.85667,     -14.16481
700.632,66.90833,     -14.16666
701.145,66.96000,     -14.16761
701.659,67.01167,     -14.16836
702.176,67.06333,     -14.16911
702.691,67.11500,     -14.16995
703.205,67.16667,     -14.17100
703.724,67.21833,     -14.17245
704.243,67.27000,     -14.17469
704.763,67.32167,     -14.17694
705.279,67.37333,     -14.17899
705.795,67.42500,     -14.18134
706.313,67.47667,     -14.18299
706.828,67.52833,     -14.18383
707.343,67.58000,     -14.18458
707.859,67.63167,     -14.18553
708.376,67.68333,     -14.18648
708.891,67.73500,     -14.18763
709.407,67.78667,     -14.18927
709.924,67.83833,     -14.19112
710.447,67.89000,     -14.19176
710.964,67.94167,     -14.19161
711.484,67.99333,     -14.19146
711.998,68.04500,     -14.19141
712.512,68.09667,     -14.19166
713.028,68.14833,     -14.19250
713.541,68.20000,     -14.19335
714.056,68.25167,     -14.19430
714.572,68.30333,     -14.19525
715.089,68.35500,     -14.19650
715.605,68.40667,     -14.19774
716.122,68.45833,     -14.19959
716.639,68.51000,     -14.20204
717.156,68.56167,     -14.20478
717.673,68.61333,     -14.20683
718.188,68.66500,     -14.20818
718.704,68.71667,     -14.20872
719.218,68.76833,     -14.20917
719.735,68.82000,     -14.20972
720.253,68.87167,     -14.21026
720.767,68.92333,     -14.21081
721.283,68.97500,     -14.21176
721.794,69.02667,     -14.21311
722.309,69.07833,     -14.21446
722.824,69.13000,     -14.21570
723.342,69.18167,     -14.21705
723.858,69.23333,     -14.21799
724.375,69.28500,     -14.21904
724.892,69.33667,     -14.21988
725.41,69.38833,     -14.22103
725.925,69.44000,     -14.22218
726.439,69.49167,     -14.22342
726.956,69.54333,     -14.22437
727.475,69.59500,     -14.22591
727.991,69.64667,     -14.22806
728.51,69.69833,     -14.23000
729.027,69.75000,     -14.23175
729.543,69.80167,     -14.23270
730.058,69.85333,     -14.23384
730.576,69.90500,     -14.23439
731.095,69.95667,     -14.23463
731.612,70.00833,     -14.23487
732.13,70.06000,     -14.23502
732.647,70.11167,     -14.23557
733.16,70.16333,     -14.23621
733.673,70.21500,     -14.23696
734.189,70.26667,     -14.23780
734.709,70.31833,     -14.23865
735.222,70.37000,     -14.23949
735.74,70.42167,     -14.24044
736.256,70.47333,     -14.24118
736.777,70.52500,     -14.24242
737.294,70.57667,     -14.24367
737.807,70.62833,     -14.24521
738.326,70.68000,     -14.24745
738.842,70.73167,     -14.24890
739.361,70.78333,     -14.24984
739.882,70.83500,     -14.25038
740.398,70.88667,     -14.25042
740.911,70.93833,     -14.25067
741.43,70.99000,     -14.25151
741.944,71.04167,     -14.25286
742.463,71.09333,     -14.25410
742.98,71.14500,     -14.25494
743.497,71.19667,     -14.25498
744.012,71.24833,     -14.25533
744.528,71.30000,     -14.25607
745.044,71.35167,     -14.25681
745.557,71.40333,     -14.25746
746.073,71.45500,     -14.25930
746.59,71.50667,     -14.26304
747.1,71.55833,     -14.26699
747.617,71.61000,     -14.27053
748.131,71.66167,     -14.27167
748.649,71.71333,     -14.27181
749.166,71.76500,     -14.27165
749.685,71.81667,     -14.27139
750.203,71.86833,     -14.27103
750.719,71.92000,     -14.27127
751.237,71.97167,     -14.27201
751.753,72.02333,     -14.27295
752.269,72.07500,     -14.27479
752.785,72.12667,     -14.27693
753.301,72.17833,     -14.27837
753.819,72.23000,     -14.27861
754.339,72.28167,     -14.27855
754.86,72.33333,     -14.27848
755.378,72.38500,     -14.27862
755.896,72.43667,     -14.27906
756.406,72.48833,     -14.27961
756.92,72.54000,     -14.28085
757.438,72.59167,     -14.28168
757.957,72.64333,     -14.28242
758.472,72.69500,     -14.28316
758.988,72.74667,     -14.28400
759.509,72.79833,     -14.28493
760.022,72.85000,     -14.28647
760.539,72.90167,     -14.28831
761.053,72.95333,     -14.28995
761.568,73.00500,     -14.29239
762.083,73.05667,     -14.29273
762.602,73.10833,     -14.29246
763.117,73.16000,     -14.29370
763.634,73.21167,     -14.29614
764.15,73.26333,     -14.29717
764.668,73.31500,     -14.29741
765.185,73.36667,     -14.29764
765.699,73.41833,     -14.29808
766.217,73.47000,     -14.29882
766.731,73.52167,     -14.29915
767.247,73.57333,     -14.29959
767.766,73.62500,     -14.30022
768.288,73.67667,     -14.30115
768.802,73.72833,     -14.30189
769.321,73.78000,     -14.30322
769.836,73.83167,     -14.30556
770.351,73.88333,     -14.30769
770.865,73.93500,     -14.30843
771.382,73.98667,     -14.30876
771.897,74.03833,     -14.30959
772.412,74.09000,     -14.31083
772.929,74.14167,     -14.31186
773.445,74.19333,     -14.31289
773.965,74.24500,     -14.31352
774.483,74.29667,     -14.31415
775,74.34833,     -14.31458
775.517,74.40000,     -14.31472
776.032,74.45167,     -14.31475
776.547,74.50333,     -14.31538
777.061,74.55500,     -14.31641
777.578,74.60667,     -14.31754
778.098,74.65833,     -14.31857
778.614,74.71000,     -14.31990
779.132,74.76167,     -14.32153
779.652,74.81333,     -14.32316
780.169,74.86500,     -14.32469
780.683,74.91667,     -14.32652
781.2,74.96833,     -14.32785
781.718,75.02000,     -14.32828
782.233,75.07167,     -14.32871
782.751,75.12333,     -14.32914
783.264,75.17500,     -14.32947
783.783,75.22667,     -14.32949
784.3,75.27833,     -14.32932
784.816,75.33000,     -14.32925
785.331,75.38167,     -14.32928
785.846,75.43333,     -14.32940
786.361,75.48500,     -14.33023
786.878,75.53667,     -14.33316
787.392,75.58833,     -14.33689
787.908,75.64000,     -14.33961
788.425,75.69167,     -14.33994
788.945,75.74333,     -14.33936
789.467,75.79500,     -14.33888
789.984,75.84667,     -14.33890
790.5,75.89833,     -14.33933
791.019,75.95000,     -14.34115
791.531,76.00167,     -14.34448
792.047,76.05333,     -14.34751
792.562,76.10500,     -14.34853
793.078,76.15667,     -14.34865
793.597,76.20833,     -14.34877
794.114,76.26000,     -14.34880
794.634,76.31167,     -14.34912
795.155,76.36333,     -14.34914
795.672,76.41500,     -14.34906
796.19,76.46667,     -14.34988
796.702,76.51833,     -14.35090
797.218,76.57000,     -14.35203
797.733,76.62167,     -14.35375
798.252,76.67333,     -14.35637
798.769,76.72500,     -14.35868
799.289,76.77667,     -14.35970
799.391,76.78667,     -14.35987