File: data-raw/TGA/S_TGA.csv
#EXPORTTYPE:                 ,DATA SINGLE
#FILE:                       ,S.ngb-st9
#FORMAT:                     ,NETZSCH5
#FTYPE:                      ,ANSI
#IDENTITY:                   ,Saras
#DECIMAL:                    ,POINT
#SEPARATOR:                  ,COMMA
#MTYPE:                      ,TG
#INSTRUMENT:                 ,NETZSCH TG 209F1 Libra
#PROJECT:                    ,IL
#DATE/TIME:                  ,22/03/2017 11:34:47 AM (UTC+11)
#CORR. FILE:                 ,
#TEMPCAL:                    ,TCALZERO.TCX
#LABORATORY:                 ,Capture Lab
#OPERATOR:                   ,NJN
#REMARK:                     ,Training run
#SAMPLE:                     ,S
#SAMPLE MASS /mg:            ,14.3454
#MATERIAL:                   ,zeolite
#TYPE OF CRUCIBLE:           ,Al2O3
#SAMPLE CRUCIBLE MASS /mg:   ,312.0404
#REFERENCE CRUCIBLE MASS /mg:,
#M.RANGE /mg:                ,2000
#CORR. CODE:                 ,090
#RANGE:                      ,32°C/10.0(K/min)/800°C
#SEGMENT:                    ,S1/1
#SEG. 1:                     ,32°C/10.0(K/min)/800°C

##Temp./°C,Time/min,Mass loss/mg
 31.95200, 0.00000,-1.662557e-003
 31.95000, 0.05167,-3.486319e-003
 31.99800, 0.10333,-5.018864e-003
 32.29400, 0.15500,-5.355570e-003
 32.67700, 0.20667,-4.286508e-003
 33.02300, 0.25833,-4.159984e-003
 33.37700, 0.31000,-4.990536e-003
 33.76900, 0.36167,-5.706122e-003
 34.21100, 0.41333,-6.610976e-003
 34.68100, 0.46500,-7.530709e-003
 35.16600, 0.51667,-8.579773e-003
 35.68800, 0.56833,-1.020096e-002
 36.23500, 0.62000,-1.164256e-002
 36.80200, 0.67167,-1.324221e-002
 37.39100, 0.72333,-1.468080e-002
 37.99500, 0.77500,-1.603916e-002
 38.61200, 0.82667,-1.733273e-002
 39.24100, 0.87833,-1.895272e-002
 39.87200, 0.93000,-2.058083e-002
 40.51200, 0.98167,-2.247092e-002
 41.15400, 1.03333,-2.518392e-002
 41.79500, 1.08500,-2.833304e-002
 42.43000, 1.13667,-3.141167e-002
 43.06900, 1.18833,-3.399608e-002
 43.69500, 1.24000,-3.638324e-002
 44.31500, 1.29167,-3.923913e-002
 44.92500, 1.34333,-4.235498e-002
 45.53100, 1.39500,-4.627617e-002
 46.12200, 1.44667,-5.026297e-002
 46.70300, 1.49833,-5.481652e-002
 47.27900, 1.55000,-5.878763e-002
 47.84500, 1.60167,-6.186229e-002
 48.40000, 1.65333,-6.520522e-002
 48.94500, 1.70500,-6.876743e-002
 49.48500, 1.75667,-7.284339e-002
 50.01400, 1.80833,-7.732907e-002
 50.54100, 1.86000,-8.204566e-002
 51.05900, 1.91167,-8.614729e-002
 51.57400, 1.96333,-9.006947e-002
 52.08600, 2.01500,-9.401511e-002
 52.59300, 2.06667,-9.795977e-002
 53.09200, 2.11833,      -0.10209
 53.59500, 2.17000,      -0.10588
 54.09500, 2.22167,      -0.11060
 54.59300, 2.27333,      -0.11519
 55.08800, 2.32500,      -0.12018
 55.58600, 2.37667,      -0.12431
 56.08700, 2.42833,      -0.12847
 56.58600, 2.48000,      -0.13278
 57.08700, 2.53167,      -0.13735
 57.58900, 2.58333,      -0.14289
 58.08900, 2.63500,      -0.14863
 58.59000, 2.68667,      -0.15498
 59.09700, 2.73833,      -0.16065
 59.60300, 2.79000,      -0.16710
 60.11000, 2.84167,      -0.17273
 60.62100, 2.89333,      -0.17810
 61.13300, 2.94500,      -0.18317
 61.65000, 2.99667,      -0.18785
 62.16400, 3.04833,      -0.19330
 62.67900, 3.10000,      -0.19844
 63.19700, 3.15167,      -0.20369
 63.71600, 3.20333,      -0.20873
 64.23700, 3.25500,      -0.21428
 64.75800, 3.30667,      -0.21982
 65.27900, 3.35833,      -0.22575
 65.80000, 3.41000,      -0.23158
 66.31900, 3.46167,      -0.23719
 66.84000, 3.51333,      -0.24290
 67.36200, 3.56500,      -0.24884
 67.88300, 3.61667,      -0.25474
 68.40200, 3.66833,      -0.26075
 68.92500, 3.72000,      -0.26719
 69.44300, 3.77167,      -0.27278
 69.96500, 3.82333,      -0.27880
 70.48900, 3.87500,      -0.28471
 71.00500, 3.92667,      -0.29039
 71.52200, 3.97833,      -0.29629
 72.04400, 4.03000,      -0.30173
 72.56500, 4.08167,      -0.30723
 73.08000, 4.13333,      -0.31183
 73.60000, 4.18500,      -0.31683
 74.12200, 4.23667,      -0.32175
 74.63600, 4.28833,      -0.32741
 75.15500, 4.34000,      -0.33324
 75.67500, 4.39167,      -0.33845
 76.19100, 4.44333,      -0.34424
 76.70800, 4.49500,      -0.34954
 77.22600, 4.54667,      -0.35484
 77.74400, 4.59833,      -0.35955
 78.26100, 4.65000,      -0.36443
 78.78100, 4.70167,      -0.36955
 79.29500, 4.75333,      -0.37504
 79.81500, 4.80500,      -0.38025
 80.32900, 4.85667,      -0.38453
 80.84800, 4.90833,      -0.38934
 81.36600, 4.96000,      -0.39394
 81.88500, 5.01167,      -0.39894
 82.40300, 5.06333,      -0.40305
 82.91900, 5.11500,      -0.40734
 83.43900, 5.16667,      -0.41124
 83.95600, 5.21833,      -0.41533
 84.47400, 5.27000,      -0.41943
 84.99200, 5.32167,      -0.42304
 85.51000, 5.37333,      -0.42673
 86.02500, 5.42500,      -0.43071
 86.54500, 5.47667,      -0.43491
 87.06200, 5.52833,      -0.43851
 87.58000, 5.58000,      -0.44230
 88.09800, 5.63167,      -0.44539
 88.61400, 5.68333,      -0.44848
 89.12900, 5.73500,      -0.45177
 89.64700, 5.78667,      -0.45516
 90.16800, 5.83833,      -0.45887
 90.68100, 5.89000,      -0.46195
 91.19800, 5.94167,      -0.46525
 91.71600, 5.99333,      -0.46795
 92.23300, 6.04500,      -0.47123
 92.75000, 6.09667,      -0.47442
 93.26600, 6.14833,      -0.47761
 93.78300, 6.20000,      -0.48020
 94.30100, 6.25167,      -0.48271
 94.81800, 6.30333,      -0.48509
 95.33600, 6.35500,      -0.48719
 95.85800, 6.40667,      -0.48940
 96.37100, 6.45833,      -0.49187
 96.89000, 6.51000,      -0.49436
 97.40500, 6.56167,      -0.49635
 97.92200, 6.61333,      -0.49865
 98.43800, 6.66500,      -0.50114
 98.95900, 6.71667,      -0.50324
 99.47600, 6.76833,      -0.50562
 99.99000, 6.82000,      -0.50771
100.509, 6.87167,      -0.51002
101.021, 6.92333,      -0.51182
101.538, 6.97500,      -0.51372
102.053, 7.02667,      -0.51575
102.572, 7.07833,      -0.51727
103.089, 7.13000,      -0.51869
103.602, 7.18167,      -0.51988
104.121, 7.23333,      -0.52120
104.637, 7.28500,      -0.52280
105.152, 7.33667,      -0.52430
105.671, 7.38833,      -0.52561
106.188, 7.44000,      -0.52692
106.706, 7.49167,      -0.52792
107.224, 7.54333,      -0.52933
107.74, 7.59500,      -0.53072
108.258, 7.64667,      -0.53191
108.772, 7.69833,      -0.53321
109.287, 7.75000,      -0.53430
109.804, 7.80167,      -0.53579
110.317, 7.85333,      -0.53717
110.835, 7.90500,      -0.53827
111.35, 7.95667,      -0.53955
111.864, 8.00833,      -0.54064
112.377, 8.06000,      -0.54172
112.898, 8.11167,      -0.54303
113.412, 8.16333,      -0.54410
113.931, 8.21500,      -0.54480
114.446, 8.26667,      -0.54578
114.961, 8.31833,      -0.54676
115.478, 8.37000,      -0.54753
115.994, 8.42167,      -0.54842
116.512, 8.47333,      -0.54950
117.023, 8.52500,      -0.55057
117.54, 8.57667,      -0.55155
118.054, 8.62833,      -0.55242
118.573, 8.68000,      -0.55340
119.086, 8.73167,      -0.55487
119.602, 8.78333,      -0.55604
120.118, 8.83500,      -0.55732
120.635, 8.88667,      -0.55780
121.154, 8.93833,      -0.55828
121.672, 8.99000,      -0.55885
122.189, 9.04167,      -0.55960
122.704, 9.09333,      -0.56057
123.22, 9.14500,      -0.56163
123.737, 9.19667,      -0.56250
124.253, 9.24833,      -0.56297
124.772, 9.30000,      -0.56324
125.291, 9.35167,      -0.56361
125.809, 9.40333,      -0.56406
126.324, 9.45500,      -0.56441
126.84, 9.50667,      -0.56478
127.361, 9.55833,      -0.56524
127.875, 9.61000,      -0.56580
128.399, 9.66167,      -0.56636
128.911, 9.71333,      -0.56711
129.426, 9.76500,      -0.56786
129.943, 9.81667,      -0.56911
130.461, 9.86833,      -0.57016
130.977, 9.92000,      -0.57122
131.491, 9.97167,      -0.57216
132.007,10.02333,      -0.57342
132.523,10.07500,      -0.57447
133.042,10.12667,      -0.57503
133.557,10.17833,      -0.57548
134.072,10.23000,      -0.57592
134.593,10.28167,      -0.57658
135.111,10.33333,      -0.57714
135.628,10.38500,      -0.57769
136.149,10.43667,      -0.57823
136.663,10.48833,      -0.57897
137.176,10.54000,      -0.57981
137.694,10.59167,      -0.58055
138.213,10.64333,      -0.58170
138.73,10.69500,      -0.58274
139.247,10.74667,      -0.58389
139.763,10.79833,      -0.58513
140.279,10.85000,      -0.58617
140.797,10.90167,      -0.58701
141.316,10.95333,      -0.58795
141.828,11.00500,      -0.58889
142.345,11.05667,      -0.58982
142.867,11.10833,      -0.59067
143.381,11.16000,      -0.59141
143.902,11.21167,      -0.59215
144.414,11.26333,      -0.59308
144.933,11.31500,      -0.59401
145.448,11.36667,      -0.59485
145.968,11.41833,      -0.59589
146.486,11.47000,      -0.59683
147.002,11.52167,      -0.59796
147.517,11.57333,      -0.59909
148.032,11.62500,      -0.60052
148.549,11.67667,      -0.60175
149.065,11.72833,      -0.60309
149.581,11.78000,      -0.60462
150.098,11.83167,      -0.60636
150.616,11.88333,      -0.60870
151.133,11.93500,      -0.61083
151.65,11.98667,      -0.61276
152.166,12.03833,      -0.61399
152.682,12.09000,      -0.61472
153.197,12.14167,      -0.61545
153.716,12.19333,      -0.61648
154.234,12.24500,      -0.61771
154.755,12.29667,      -0.61875
155.27,12.34833,      -0.62017
155.786,12.40000,      -0.62210
156.306,12.45167,      -0.62473
156.821,12.50333,      -0.62665
157.335,12.55500,      -0.62788
157.852,12.60667,      -0.62851
158.372,12.65833,      -0.62934
158.888,12.71000,      -0.63017
159.404,12.76167,      -0.63159
159.922,12.81333,      -0.63392
160.436,12.86500,      -0.63614
160.954,12.91667,      -0.63838
161.466,12.96833,      -0.64070
161.986,13.02000,      -0.64323
162.498,13.07167,      -0.64525
163.018,13.12333,      -0.64668
163.535,13.17500,      -0.64821
164.055,13.22667,      -0.65014
164.571,13.27833,      -0.65187
165.087,13.33000,      -0.65380
165.604,13.38167,      -0.65582
166.123,13.43333,      -0.65785
166.639,13.48500,      -0.66077
167.156,13.53667,      -0.66369
167.668,13.58833,      -0.66612
168.184,13.64000,      -0.66844
168.697,13.69167,      -0.67076
169.216,13.74333,      -0.67239
169.732,13.79500,      -0.67352
170.249,13.84667,      -0.67465
170.766,13.89833,      -0.67608
171.284,13.95000,      -0.67791
171.798,14.00167,      -0.68143
172.313,14.05333,      -0.68525
172.829,14.10500,      -0.68788
173.345,14.15667,      -0.68920
173.865,14.20833,      -0.69004
174.379,14.26000,      -0.69116
174.897,14.31167,      -0.69379
175.415,14.36333,      -0.69592
175.928,14.41500,      -0.69914
176.448,14.46667,      -0.70208
176.964,14.51833,      -0.70420
177.481,14.57000,      -0.70673
177.999,14.62167,      -0.70936
178.514,14.67333,      -0.71248
179.035,14.72500,      -0.71502
179.55,14.77667,      -0.71744
180.071,14.82833,      -0.71988
180.587,14.88000,      -0.72200
181.103,14.93167,      -0.72453
181.623,14.98333,      -0.72696
182.137,15.03500,      -0.72939
182.655,15.08667,      -0.73222
183.169,15.13833,      -0.73534
183.687,15.19000,      -0.73917
184.202,15.24167,      -0.74260
184.719,15.29333,      -0.74593
185.234,15.34500,      -0.74967
185.751,15.39667,      -0.75260
186.268,15.44833,      -0.75483
186.789,15.50000,      -0.75697
187.304,15.55167,      -0.75960
187.823,15.60333,      -0.76333
188.337,15.65500,      -0.76716
188.853,15.70667,      -0.77100
189.371,15.75833,      -0.77463
189.887,15.81000,      -0.77857
190.403,15.86167,      -0.78270
190.921,15.91333,      -0.78664
191.437,15.96500,      -0.79108
191.953,16.01667,      -0.79501
192.475,16.06833,      -0.79896
192.987,16.12000,      -0.80239
193.506,16.17167,      -0.80643
194.019,16.22333,      -0.81046
194.536,16.27500,      -0.81531
195.057,16.32667,      -0.82035
195.574,16.37833,      -0.82489
196.089,16.43000,      -0.82973
196.607,16.48167,      -0.83467
197.123,16.53333,      -0.83971
197.639,16.58500,      -0.84465
198.159,16.63667,      -0.84940
198.675,16.68833,      -0.85344
199.192,16.74000,      -0.85829
199.708,16.79167,      -0.86373
200.222,16.84333,      -0.87017
200.739,16.89500,      -0.87762
201.258,16.94667,      -0.88317
201.77,16.99833,      -0.88851
202.287,17.05000,      -0.89346
202.804,17.10167,      -0.89940
203.325,17.15333,      -0.90455
203.842,17.20500,      -0.90980
204.361,17.25667,      -0.91535
204.877,17.30833,      -0.92130
205.393,17.36000,      -0.92914
205.904,17.41167,      -0.93608
206.42,17.46333,      -0.94293
206.939,17.51500,      -0.94938
207.454,17.56667,      -0.95643
207.971,17.61833,      -0.96378
208.486,17.67000,      -0.97152
209.003,17.72167,      -0.97837
209.519,17.77333,      -0.98422
210.039,17.82500,      -0.99037
210.553,17.87667,      -0.99722
211.072,17.92833,      -1.00447
211.589,17.98000,      -1.01151
212.105,18.03167,      -1.01886
212.62,18.08333,      -1.02561
213.138,18.13500,      -1.03336
213.656,18.18667,      -1.04141
214.168,18.23833,      -1.04936
214.685,18.29000,      -1.05691
215.2,18.34167,      -1.06366
215.718,18.39333,      -1.07151
216.237,18.44500,      -1.07926
216.75,18.49667,      -1.08821
217.27,18.54833,      -1.09616
217.785,18.60000,      -1.10451
218.301,18.65167,      -1.11286
218.819,18.70333,      -1.12131
219.336,18.75500,      -1.13016
219.859,18.80667,      -1.13781
220.375,18.85833,      -1.14666
220.893,18.91000,      -1.15461
221.409,18.96167,      -1.16296
221.927,19.01333,      -1.17141
222.444,19.06500,      -1.18046
222.959,19.11667,      -1.18941
223.473,19.16833,      -1.19806
223.994,19.22000,      -1.20741
224.507,19.27167,      -1.21676
225.021,19.32333,      -1.22731
225.537,19.37500,      -1.23776
226.055,19.42667,      -1.24872
226.569,19.47833,      -1.25857
227.087,19.53000,      -1.26872
227.606,19.58167,      -1.27907
228.122,19.63333,      -1.28912
228.642,19.68500,      -1.30058
229.154,19.73667,      -1.31172
229.675,19.78833,      -1.32388
230.187,19.84000,      -1.33543
230.704,19.89167,      -1.34828
231.22,19.94333,      -1.36003
231.737,19.99500,      -1.37248
232.251,20.04667,      -1.38513
232.769,20.09833,      -1.39699
233.286,20.15000,      -1.41034
233.804,20.20167,      -1.43379
234.32,20.25333,      -1.44734
234.836,20.30500,      -1.45800
235.353,20.35667,      -1.47085
235.868,20.40833,      -1.49640
236.385,20.46000,      -1.51335
236.901,20.51167,      -1.52510
237.419,20.56333,      -1.53675
237.934,20.61500,      -1.56221
238.449,20.66667,      -1.57856
238.965,20.71833,      -1.59561
239.481,20.77000,      -1.61276
240.001,20.82167,      -1.63052
240.52,20.87333,      -1.64777
241.034,20.92500,      -1.66682
241.552,20.97667,      -1.68687
242.07,21.02833,      -1.70613
242.586,21.08000,      -1.72658
243.101,21.13167,      -1.74623
243.618,21.18333,      -1.76808
244.136,21.23500,      -1.78853
244.653,21.28667,      -1.81099
245.168,21.33833,      -1.83394
245.684,21.39000,      -1.85629
246.199,21.44167,      -1.88044
246.716,21.49333,      -1.90259
247.232,21.54500,      -1.92655
247.751,21.59667,      -1.94950
248.263,21.64833,      -1.97365
248.782,21.70000,      -1.99670
249.303,21.75167,      -2.02206
249.819,21.80333,      -2.04641
250.334,21.85500,      -2.07336
250.851,21.90667,      -2.10081
251.365,21.95833,      -2.12776
251.88,22.01000,      -2.15731
252.398,22.06167,      -2.18367
252.915,22.11333,      -2.21132
253.429,22.16500,      -2.23817
253.948,22.21667,      -2.26772
254.464,22.26833,      -2.29447
254.983,22.32000,      -2.32343
255.502,22.37167,      -2.35208
256.018,22.42333,      -2.37953
256.535,22.47500,      -2.40918
257.049,22.52667,      -2.43843
257.562,22.57833,      -2.46958
258.077,22.63000,      -2.49823
258.592,22.68167,      -2.52869
259.111,22.73333,      -2.55604
259.626,22.78500,      -2.58649
260.142,22.83667,      -2.61704
260.658,22.88833,      -2.64659
261.175,22.94000,      -2.67604
261.692,22.99167,      -2.70519
262.207,23.04333,      -2.73684
262.723,23.09500,      -2.76610
263.239,23.14667,      -2.79665
263.755,23.19833,      -2.82500
264.269,23.25000,      -2.85665
264.782,23.30167,      -2.88860
265.297,23.35333,      -2.91755
265.814,23.40500,      -2.94830
266.329,23.45667,      -2.97655
266.851,23.50833,      -3.00700
267.369,23.56000,      -3.03525
267.884,23.61167,      -3.06510
268.399,23.66333,      -3.09315
268.917,23.71500,      -3.12310
269.434,23.76667,      -3.15305
269.947,23.81833,      -3.18060
270.469,23.87000,      -3.21015
270.987,23.92167,      -3.23800
271.5,23.97333,      -3.26795
272.018,24.02500,      -3.29499
272.534,24.07667,      -3.32464
273.049,24.12833,      -3.35229
273.564,24.18000,      -3.38164
274.082,24.23167,      -3.41069
274.6,24.28333,      -3.43764
275.115,24.33500,      -3.46619
275.632,24.38667,      -3.49284
276.148,24.43833,      -3.52138
276.664,24.49000,      -3.54843
277.18,24.54167,      -3.57718
277.696,24.59333,      -3.60273
278.209,24.64500,      -3.63367
278.726,24.69667,      -3.66072
279.244,24.74833,      -3.68597
279.76,24.80000,      -3.71342
280.278,24.85167,      -3.73916
280.806,24.90333,      -3.76701
281.328,24.95500,      -3.79336
281.864,25.00667,      -3.82130
282.379,25.05833,      -3.84715
282.891,25.11000,      -3.87509
283.399,25.16167,      -3.90264
283.909,25.21333,      -3.92859
284.418,25.26500,      -3.95663
284.932,25.31667,      -3.98208
285.448,25.36833,      -4.01003
285.959,25.42000,      -4.03637
286.476,25.47167,      -4.06422
286.992,25.52333,      -4.08996
287.507,25.57500,      -4.11731
288.024,25.62667,      -4.14505
288.542,25.67833,      -4.17050
289.06,25.73000,      -4.19654
289.574,25.78167,      -4.22459
290.091,25.83333,      -4.25383
290.608,25.88500,      -4.28137
291.124,25.93667,      -4.31032
291.639,25.98833,      -4.33696
292.156,26.04000,      -4.36610
292.674,26.09167,      -4.39515
293.192,26.14333,      -4.42299
293.711,26.19500,      -4.45293
294.225,26.24667,      -4.48137
294.744,26.29833,      -4.51162
295.262,26.35000,      -4.53986
295.779,26.40167,      -4.57040
296.297,26.45333,      -4.60084
296.813,26.50500,      -4.63028
297.329,26.55667,      -4.66152
297.845,26.60833,      -4.69256
298.361,26.66000,      -4.72591
298.874,26.71167,      -4.75505
299.396,26.76333,      -4.78659
299.91,26.81500,      -4.81703
300.429,26.86667,      -4.85187
300.95,26.91833,      -4.88541
301.465,26.97000,      -4.91765
301.981,27.02167,      -4.95309
302.497,27.07333,      -4.98773
303.016,27.12500,      -5.02547
303.529,27.17667,      -5.06201
304.046,27.22833,      -5.10005
304.558,27.28000,      -5.13579
305.074,27.33167,      -5.17433
305.588,27.38333,      -5.21407
306.108,27.43500,      -5.25151
306.623,27.48667,      -5.29215
307.142,27.53833,      -5.33069
307.661,27.59000,      -5.37283
308.179,27.64167,      -5.41287
308.695,27.69333,      -5.45631
309.214,27.74500,      -5.49825
309.728,27.79667,      -5.54329
310.242,27.84833,      -5.58953
310.757,27.90000,      -5.63377
311.276,27.95167,      -5.68261
311.791,28.00333,      -5.72855
312.305,28.05500,      -5.77979
312.824,28.10667,      -5.82653
313.344,28.15833,      -5.87787
313.863,28.21000,      -5.92761
314.379,28.26167,      -5.98065
314.897,28.31333,      -6.03479
315.413,28.36500,      -6.08613
315.93,28.41667,      -6.14217
316.446,28.46833,      -6.19511
316.961,28.52000,      -6.25275
317.48,28.57167,      -6.30679
317.998,28.62333,      -6.36533
318.515,28.67500,      -6.42127
319.03,28.72667,      -6.48111
319.549,28.77833,      -6.54155
320.065,28.83000,      -6.59819
320.598,28.88167,      -6.66012
321.112,28.93333,      -6.71826
321.628,28.98500,      -6.77981
322.143,29.03667,      -6.83665
322.659,29.08833,      -6.89729
323.166,29.14000,      -6.95413
323.683,29.19167,      -7.01427
324.197,29.24333,      -7.07271
324.713,29.29500,      -7.12635
325.23,29.34667,      -7.18249
325.746,29.39833,      -7.23443
326.261,29.45000,      -7.29087
326.778,29.50167,      -7.34121
327.293,29.55333,      -7.39185
327.813,29.60500,      -7.43868
328.327,29.65667,      -7.48802
328.842,29.70833,      -7.53546
329.357,29.76000,      -7.57850
329.873,29.81167,      -7.62324
330.387,29.86333,      -7.66368
330.903,29.91500,      -7.70462
331.422,29.96667,      -7.74086
331.935,30.01833,      -7.77800
332.454,30.07000,      -7.81114
332.97,30.12167,      -7.84548
333.483,30.17333,      -7.87832
334,30.22500,      -7.90755
334.512,30.27667,      -7.93820
335.029,30.32833,      -7.96533
335.544,30.38000,      -7.99387
336.06,30.43167,      -8.01951
336.577,30.48333,      -8.04545
337.094,30.53500,      -8.06889
337.607,30.58667,      -8.09313
338.124,30.63833,      -8.11496
338.64,30.69000,      -8.13700
339.158,30.74167,      -8.15764
339.672,30.79333,      -8.17668
340.189,30.84500,      -8.19632
340.706,30.89667,      -8.21425
341.223,30.94833,      -8.23239
341.741,31.00000,      -8.24843
342.257,31.05167,      -8.26587
342.774,31.10333,      -8.28050
343.289,31.15500,      -8.29184
343.804,31.20667,      -8.30438
344.32,31.25833,      -8.31852
344.836,31.31000,      -8.33895
345.351,31.36167,      -8.34959
345.868,31.41333,      -8.36133
346.386,31.46500,      -8.37326
346.903,31.51667,      -8.38680
347.418,31.56833,      -8.40774
347.939,31.62000,      -8.41717
348.454,31.67167,      -8.42761
348.972,31.72333,      -8.43815
349.489,31.77500,      -8.44998
350.004,31.82667,      -8.46162
350.521,31.87833,      -8.47456
351.036,31.93000,      -8.48689
351.552,31.98167,      -8.49883
352.07,32.03333,      -8.51076
352.586,32.08500,      -8.52200
353.103,32.13667,      -8.53304
353.62,32.18833,      -8.54267
354.138,32.24000,      -8.55351
354.654,32.29167,      -8.56324
355.169,32.34333,      -8.57468
355.683,32.39500,      -8.58481
356.201,32.44667,      -8.59565
356.718,32.49833,      -8.60598
357.233,32.55000,      -8.61562
357.746,32.60167,      -8.62615
358.264,32.65333,      -8.63579
358.779,32.70500,      -8.64572
359.295,32.75667,      -8.65516
359.812,32.80833,      -8.66469
360.329,32.86000,      -8.67382
360.847,32.91167,      -8.68306
361.366,32.96333,      -8.69239
361.882,33.01500,      -8.70162
362.4,33.06667,      -8.71096
362.915,33.11833,      -8.71989
363.431,33.17000,      -8.72943
363.949,33.22167,      -8.73856
364.465,33.27333,      -8.74799
364.981,33.32500,      -8.75662
365.495,33.37667,      -8.76586
366.015,33.42833,      -8.77459
366.529,33.48000,      -8.78322
367.046,33.53167,      -8.79276
367.561,33.58333,      -8.80209
368.076,33.63500,      -8.81172
368.592,33.68667,      -8.82015
369.107,33.73833,      -8.82948
369.624,33.79000,      -8.83782
370.138,33.84167,      -8.84745
370.654,33.89333,      -8.85688
371.172,33.94500,      -8.86531
371.689,33.99667,      -8.87434
372.208,34.04833,      -8.88227
372.718,34.10000,      -8.89040
373.238,34.15167,      -8.89763
373.761,34.20333,      -8.90556
374.278,34.25500,      -8.91289
374.795,34.30667,      -8.92032
375.314,34.35833,      -8.92815
375.829,34.41000,      -8.93628
376.345,34.46167,      -8.94491
376.858,34.51333,      -8.95334
377.374,34.56500,      -8.96257
377.89,34.61667,      -8.97090
378.404,34.66833,      -8.97893
378.922,34.72000,      -8.98676
379.439,34.77167,      -8.99568
379.953,34.82333,      -9.00441
380.469,34.87500,      -9.01214
380.984,34.92667,      -9.01997
381.502,34.97833,      -9.02670
382.016,35.03000,      -9.03423
382.533,35.08167,      -9.04125
383.049,35.13333,      -9.04958
383.564,35.18500,      -9.05751
384.082,35.23667,      -9.06593
384.6,35.28833,      -9.07376
385.112,35.34000,      -9.08089
385.627,35.39167,      -9.08912
386.145,35.44333,      -9.09654
386.659,35.49500,      -9.10427
387.177,35.54667,      -9.11149
387.694,35.59833,      -9.11902
388.211,35.65000,      -9.12654
388.729,35.70167,      -9.13417
389.245,35.75333,      -9.14139
389.763,35.80500,      -9.14832
390.279,35.85667,      -9.15554
390.798,35.90833,      -9.16206
391.314,35.96000,      -9.16929
391.833,36.01167,      -9.17591
392.348,36.06333,      -9.18324
392.864,36.11500,      -9.19006
393.377,36.16667,      -9.19829
393.895,36.21833,      -9.20701
394.408,36.27000,      -9.21433
394.925,36.32167,      -9.22096
395.442,36.37333,      -9.22788
395.958,36.42500,      -9.23620
396.473,36.47667,      -9.24332
396.991,36.52833,      -9.25114
397.507,36.58000,      -9.25797
398.024,36.63167,      -9.26489
398.54,36.68333,      -9.27181
399.058,36.73500,      -9.27763
399.573,36.78667,      -9.28525
400.088,36.83833,      -9.29317
400.604,36.89000,      -9.30069
401.119,36.94167,      -9.30761
401.631,36.99333,      -9.31574
402.147,37.04500,      -9.32335
402.667,37.09667,      -9.33077
403.184,37.14833,      -9.33699
403.7,37.20000,      -9.34361
404.219,37.25167,      -9.35113
404.733,37.30333,      -9.35735
405.252,37.35500,      -9.36367
405.766,37.40667,      -9.37029
406.282,37.45833,      -9.37751
406.797,37.51000,      -9.38393
407.314,37.56167,      -9.39084
407.83,37.61333,      -9.39786
408.343,37.66500,      -9.40468
408.86,37.71667,      -9.41140
409.381,37.76833,      -9.41752
409.899,37.82000,      -9.42453
410.418,37.87167,      -9.43015
410.937,37.92333,      -9.43786
411.457,37.97500,      -9.44448
411.97,38.02667,      -9.45231
412.484,38.07833,      -9.46012
413,38.13000,      -9.46654
413.512,38.18167,      -9.47336
414.03,38.23333,      -9.47938
414.547,38.28500,      -9.48579
415.061,38.33667,      -9.49221
415.576,38.38833,      -9.49833
416.093,38.44000,      -9.50454
416.609,38.49167,      -9.51166
417.126,38.54333,      -9.51898
417.641,38.59500,      -9.52619
418.156,38.64667,      -9.53331
418.675,38.69833,      -9.53962
419.189,38.75000,      -9.54654
419.708,38.80167,      -9.55305
420.226,38.85333,      -9.55947
420.746,38.90500,      -9.56488
421.265,38.95667,      -9.57060
421.786,39.00833,      -9.57531
422.303,39.06000,      -9.57993
422.816,39.11167,      -9.58655
423.332,39.16333,      -9.59346
423.844,39.21500,      -9.60118
424.355,39.26667,      -9.60790
424.868,39.31833,      -9.61552
425.382,39.37000,      -9.62213
425.896,39.42167,      -9.62844
426.415,39.47333,      -9.63425
426.931,39.52500,      -9.63917
427.45,39.57667,      -9.64468
427.967,39.62833,      -9.64949
428.485,39.68000,      -9.65520
429.003,39.73167,      -9.66112
429.518,39.78333,      -9.66773
430.034,39.83500,      -9.67375
430.547,39.88667,      -9.67986
431.065,39.93833,      -9.68657
431.581,39.99000,      -9.69268
432.098,40.04167,      -9.69830
432.614,40.09333,      -9.70401
433.13,40.14500,      -9.70982
433.643,40.19667,      -9.71484
434.163,40.24833,      -9.71965
434.682,40.30000,      -9.72436
435.201,40.35167,      -9.73027
435.716,40.40333,      -9.73688
436.233,40.45500,      -9.74310
436.747,40.50667,      -9.74931
437.262,40.55833,      -9.75472
437.777,40.61000,      -9.76093
438.297,40.66167,      -9.76604
438.812,40.71333,      -9.77145
439.328,40.76500,      -9.77666
439.844,40.81667,      -9.78168
440.359,40.86833,      -9.78669
440.878,40.92000,      -9.79160
441.39,40.97167,      -9.79781
441.906,41.02333,      -9.80312
442.421,41.07500,      -9.80783
442.941,41.12667,      -9.81304
443.455,41.17833,      -9.81885
443.971,41.23000,      -9.82426
444.485,41.28167,      -9.83017
445.002,41.33333,      -9.83568
445.521,41.38500,      -9.84029
446.038,41.43667,      -9.84450
446.557,41.48833,      -9.84880
447.073,41.54000,      -9.85301
447.589,41.59167,      -9.85742
448.106,41.64333,      -9.86313
448.62,41.69500,      -9.86874
449.134,41.74667,      -9.87485
449.652,41.79833,      -9.88026
450.164,41.85000,      -9.88517
450.683,41.90167,      -9.89008
451.201,41.95333,      -9.89419
451.716,42.00500,      -9.89870
452.235,42.05667,      -9.90250
452.75,42.10833,      -9.90681
453.269,42.16000,      -9.91142
453.785,42.21167,      -9.91512
454.304,42.26333,      -9.91873
454.82,42.31500,      -9.92284
455.335,42.36667,      -9.92804
455.851,42.41833,      -9.93245
456.371,42.47000,      -9.93726
456.884,42.52167,      -9.94197
457.4,42.57333,      -9.94688
457.916,42.62500,      -9.95228
458.429,42.67667,      -9.95669
458.946,42.72833,      -9.95980
459.463,42.78000,      -9.96270
459.981,42.83167,      -9.96611
460.496,42.88333,      -9.97011
461.012,42.93500,      -9.97482
461.531,42.98667,      -9.97922
462.042,43.03833,      -9.98383
462.558,43.09000,      -9.98814
463.075,43.14167,      -9.99254
463.594,43.19333,      -9.99695
464.108,43.24500,     -10.00085
464.626,43.29667,     -10.00426
465.145,43.34833,     -10.00726
465.663,43.40000,     -10.01036
466.178,43.45167,     -10.01337
466.696,43.50333,     -10.01687
467.213,43.55500,     -10.02168
467.726,43.60667,     -10.02699
468.238,43.65833,     -10.03169
468.754,43.71000,     -10.03490
469.27,43.76167,     -10.03870
469.784,43.81333,     -10.04261
470.302,43.86500,     -10.04611
470.822,43.91667,     -10.04891
471.34,43.96833,     -10.05081
471.854,44.02000,     -10.05401
472.373,44.07167,     -10.05792
472.889,44.12333,     -10.06252
473.402,44.17500,     -10.06563
473.918,44.22667,     -10.06883
474.432,44.27833,     -10.07244
474.947,44.33000,     -10.07644
475.463,44.38167,     -10.08004
475.978,44.43333,     -10.08344
476.495,44.48500,     -10.08704
477.012,44.53667,     -10.09154
477.528,44.58833,     -10.09485
478.044,44.64000,     -10.09635
478.562,44.69167,     -10.09805
479.08,44.74333,     -10.10015
479.598,44.79500,     -10.10335
480.113,44.84667,     -10.10595
480.632,44.89833,     -10.10905
481.148,44.95000,     -10.11166
481.663,45.00167,     -10.11456
482.179,45.05333,     -10.11836
482.69,45.10500,     -10.12287
483.204,45.15667,     -10.12777
483.719,45.20833,     -10.13207
484.235,45.26000,     -10.13567
484.75,45.31167,     -10.13837
485.266,45.36333,     -10.14046
485.784,45.41500,     -10.14206
486.305,45.46667,     -10.14396
486.82,45.51833,     -10.14686
487.336,45.57000,     -10.14986
487.855,45.62167,     -10.15246
488.373,45.67333,     -10.15516
488.887,45.72500,     -10.15816
489.401,45.77667,     -10.16106
489.918,45.82833,     -10.16436
490.434,45.88000,     -10.16736
490.952,45.93167,     -10.16986
491.468,45.98333,     -10.17255
491.986,46.03500,     -10.17495
492.503,46.08667,     -10.17755
493.018,46.13833,     -10.18025
493.536,46.19000,     -10.18315
494.051,46.24167,     -10.18615
494.567,46.29333,     -10.18885
495.08,46.34500,     -10.19185
495.596,46.39667,     -10.19444
496.112,46.44833,     -10.19704
496.627,46.50000,     -10.19974
497.142,46.55167,     -10.20244
497.662,46.60333,     -10.20493
498.181,46.65500,     -10.20743
498.697,46.70667,     -10.20962
499.211,46.75833,     -10.21203
499.725,46.81000,     -10.21432
500.242,46.86167,     -10.21622
500.757,46.91333,     -10.21821
501.277,46.96500,     -10.22021
501.792,47.01667,     -10.22271
502.307,47.06833,     -10.22510
502.825,47.12000,     -10.22800
503.342,47.17167,     -10.23029
503.858,47.22333,     -10.23259
504.375,47.27500,     -10.23469
504.896,47.32667,     -10.23648
505.411,47.37833,     -10.23918
505.924,47.43000,     -10.24128
506.438,47.48167,     -10.24377
506.955,47.53333,     -10.24647
507.468,47.58500,     -10.25027
507.982,47.63667,     -10.25367
508.494,47.68833,     -10.25626
509.01,47.74000,     -10.25816
509.527,47.79167,     -10.25995
510.042,47.84333,     -10.26224
510.561,47.89500,     -10.26424
511.082,47.94667,     -10.26573
511.601,47.99833,     -10.26662
512.118,48.05000,     -10.26761
512.635,48.10167,     -10.26851
513.149,48.15333,     -10.27071
513.664,48.20500,     -10.27411
514.178,48.25667,     -10.27740
514.695,48.30833,     -10.27960
515.212,48.36000,     -10.28119
515.729,48.41167,     -10.28208
516.247,48.46333,     -10.28317
516.766,48.51500,     -10.28537
517.285,48.56667,     -10.28776
517.801,48.61833,     -10.29066
518.317,48.67000,     -10.29355
518.831,48.72167,     -10.29575
519.345,48.77333,     -10.29804
519.86,48.82500,     -10.30024
520.375,48.87667,     -10.30263
520.888,48.92833,     -10.30473
521.403,48.98000,     -10.30672
521.917,49.03167,     -10.30851
522.431,49.08333,     -10.31081
522.949,49.13500,     -10.31340
523.464,49.18667,     -10.31559
523.981,49.23833,     -10.31748
524.493,49.29000,     -10.31878
525.014,49.34167,     -10.32067
525.531,49.39333,     -10.32136
526.047,49.44500,     -10.32265
526.561,49.49667,     -10.32504
527.078,49.54833,     -10.32794
527.593,49.60000,     -10.33043
528.11,49.65167,     -10.33262
528.624,49.70333,     -10.33421
529.143,49.75500,     -10.33580
529.657,49.80667,     -10.33780
530.174,49.85833,     -10.33969
530.691,49.91000,     -10.34178
531.209,49.96167,     -10.34347
531.725,50.01333,     -10.34456
532.242,50.06500,     -10.34575
532.761,50.11667,     -10.34654
533.277,50.16833,     -10.34773
533.794,50.22000,     -10.34932
534.312,50.27167,     -10.35171
534.83,50.32333,     -10.35380
535.346,50.37500,     -10.35530
535.86,50.42667,     -10.35659
536.378,50.47833,     -10.35798
536.893,50.53000,     -10.35977
537.409,50.58167,     -10.36176
537.925,50.63333,     -10.36405
538.442,50.68500,     -10.36514
538.959,50.73667,     -10.36623
539.478,50.78833,     -10.36741
539.989,50.84000,     -10.36881
540.506,50.89167,     -10.37020
541.026,50.94333,     -10.37208
541.54,50.99500,     -10.37447
542.057,51.04667,     -10.37676
542.572,51.09833,     -10.37865
543.09,51.15000,     -10.38004
543.605,51.20167,     -10.38173
544.119,51.25333,     -10.38342
544.641,51.30500,     -10.38530
545.154,51.35667,     -10.38700
545.67,51.40833,     -10.38798
546.183,51.46000,     -10.38897
546.697,51.51167,     -10.39006
547.213,51.56333,     -10.39155
547.724,51.61500,     -10.39344
548.242,51.66667,     -10.39593
548.759,51.71833,     -10.39841
549.275,51.77000,     -10.40060
549.792,51.82167,     -10.40168
550.308,51.87333,     -10.40247
550.824,51.92500,     -10.40366
551.341,51.97667,     -10.40464
551.859,52.02833,     -10.40563
552.377,52.08000,     -10.40662
552.893,52.13167,     -10.40820
553.409,52.18333,     -10.41009
553.926,52.23500,     -10.41198
554.441,52.28667,     -10.41296
554.957,52.33833,     -10.41375
555.474,52.39000,     -10.41473
555.992,52.44167,     -10.41652
556.508,52.49333,     -10.41910
557.024,52.54500,     -10.42189
557.542,52.59667,     -10.42437
558.054,52.64833,     -10.42656
558.569,52.70000,     -10.42845
559.084,52.75167,     -10.42943
559.596,52.80333,     -10.43002
560.114,52.85500,     -10.43080
560.633,52.90667,     -10.43158
561.151,52.95833,     -10.43247
561.669,53.01000,     -10.43345
562.185,53.06167,     -10.43473
562.702,53.11333,     -10.43602
563.218,53.16500,     -10.43720
563.736,53.21667,     -10.43829
564.254,53.26833,     -10.43937
564.768,53.32000,     -10.44065
565.29,53.37167,     -10.44213
565.805,53.42333,     -10.44352
566.324,53.47500,     -10.44520
566.84,53.52667,     -10.44638
567.355,53.57833,     -10.44746
567.871,53.63000,     -10.44815
568.386,53.68167,     -10.44943
568.902,53.73333,     -10.45121
569.419,53.78500,     -10.45349
569.935,53.83667,     -10.45598
570.455,53.88833,     -10.45796
570.97,53.94000,     -10.45964
571.488,53.99167,     -10.46102
572.005,54.04333,     -10.46220
572.523,54.09500,     -10.46338
573.041,54.14667,     -10.46426
573.559,54.19833,     -10.46524
574.074,54.25000,     -10.46622
574.591,54.30167,     -10.46710
575.108,54.35333,     -10.46828
575.623,54.40500,     -10.46916
576.138,54.45667,     -10.47054
576.655,54.50833,     -10.47182
577.171,54.56000,     -10.47330
577.686,54.61167,     -10.47458
578.199,54.66333,     -10.47646
578.715,54.71500,     -10.47844
579.231,54.76667,     -10.48022
579.748,54.81833,     -10.48170
580.264,54.87000,     -10.48257
580.783,54.92167,     -10.48385
581.301,54.97333,     -10.48483
581.821,55.02500,     -10.48580
582.338,55.07667,     -10.48658
582.853,55.12833,     -10.48756
583.373,55.18000,     -10.48854
583.888,55.23167,     -10.48972
584.404,55.28333,     -10.49099
584.918,55.33500,     -10.49197
585.432,55.38667,     -10.49275
585.95,55.43833,     -10.49343
586.469,55.49000,     -10.49420
586.985,55.54167,     -10.49507
587.506,55.59333,     -10.49605
588.021,55.64500,     -10.49743
588.538,55.69667,     -10.49900
589.053,55.74833,     -10.50088
589.572,55.80000,     -10.50295
590.088,55.85167,     -10.50543
590.605,55.90333,     -10.50720
591.122,55.95500,     -10.50858
591.636,56.00667,     -10.51025
592.15,56.05833,     -10.51173
592.669,56.11000,     -10.51300
593.181,56.16167,     -10.51358
593.7,56.21333,     -10.51385
594.218,56.26500,     -10.51372
594.735,56.31667,     -10.51359
595.254,56.36833,     -10.51387
595.771,56.42000,     -10.51484
596.288,56.47167,     -10.51711
596.806,56.52333,     -10.51949
597.319,56.57500,     -10.52216
597.835,56.62667,     -10.52483
598.353,56.67833,     -10.52680
598.872,56.73000,     -10.52717
599.388,56.78167,     -10.52705
599.906,56.83333,     -10.52752
600.424,56.88500,     -10.52859
600.938,56.93667,     -10.52996
601.457,56.98833,     -10.53083
601.974,57.04000,     -10.53150
602.494,57.09167,     -10.53227
603.012,57.14333,     -10.53314
603.527,57.19500,     -10.53381
604.047,57.24667,     -10.53468
604.565,57.29833,     -10.53525
605.082,57.35000,     -10.53612
605.596,57.40167,     -10.53739
606.116,57.45333,     -10.53846
606.633,57.50500,     -10.53953
607.15,57.55667,     -10.54050
607.67,57.60833,     -10.54196
608.19,57.66000,     -10.54323
608.705,57.71167,     -10.54450
609.224,57.76333,     -10.54547
609.737,57.81500,     -10.54624
610.253,57.86667,     -10.54711
610.766,57.91833,     -10.54798
611.282,57.97000,     -10.54915
611.797,58.02167,     -10.55032
612.309,58.07333,     -10.55169
612.826,58.12500,     -10.55305
613.343,58.17667,     -10.55492
613.861,58.22833,     -10.55718
614.375,58.28000,     -10.55955
614.892,58.33167,     -10.56092
615.41,58.38333,     -10.56178
615.928,58.43500,     -10.56225
616.448,58.48667,     -10.56221
616.967,58.53833,     -10.56237
617.483,58.59000,     -10.56274
617.998,58.64167,     -10.56331
618.513,58.69333,     -10.56408
619.03,58.74500,     -10.56504
619.548,58.79667,     -10.56641
620.065,58.84833,     -10.56777
620.58,58.90000,     -10.56924
621.096,58.95167,     -10.57060
621.611,59.00333,     -10.57187
622.127,59.05500,     -10.57273
622.642,59.10667,     -10.57350
623.161,59.15833,     -10.57396
623.679,59.21000,     -10.57462
624.199,59.26167,     -10.57528
624.712,59.31333,     -10.57605
625.231,59.36500,     -10.57701
625.743,59.41667,     -10.57808
626.263,59.46833,     -10.57924
626.778,59.52000,     -10.58030
627.295,59.57167,     -10.58117
627.808,59.62333,     -10.58213
628.324,59.67500,     -10.58319
628.843,59.72667,     -10.58455
629.356,59.77833,     -10.58572
629.874,59.83000,     -10.58698
630.39,59.88167,     -10.58814
630.905,59.93333,     -10.58900
631.424,59.98500,     -10.58986
631.94,60.03667,     -10.59122
632.454,60.08833,     -10.59299
632.97,60.14000,     -10.59575
633.487,60.19167,     -10.59751
634.005,60.24333,     -10.59857
634.524,60.29500,     -10.59922
635.043,60.34667,     -10.59918
635.563,60.39833,     -10.59914
636.078,60.45000,     -10.59911
636.595,60.50167,     -10.59917
637.108,60.55333,     -10.59963
637.621,60.60500,     -10.60070
638.135,60.65667,     -10.60256
638.648,60.70833,     -10.60522
639.167,60.76000,     -10.60717
639.682,60.81167,     -10.60763
640.202,60.86333,     -10.60829
640.719,60.91500,     -10.60935
641.235,60.96667,     -10.61071
641.753,61.01833,     -10.61146
642.266,61.07000,     -10.61173
642.783,61.12167,     -10.61198
643.302,61.17333,     -10.61164
643.819,61.22500,     -10.61120
644.337,61.27667,     -10.61066
644.851,61.32833,     -10.61112
645.369,61.38000,     -10.61347
645.883,61.43167,     -10.61593
646.397,61.48333,     -10.61759
646.914,61.53500,     -10.61805
647.43,61.58667,     -10.61791
647.944,61.63833,     -10.61887
648.457,61.69000,     -10.62153
648.969,61.74167,     -10.62439
649.486,61.79333,     -10.62634
650.001,61.84500,     -10.62720
650.52,61.89667,     -10.62785
651.035,61.94833,     -10.62831
651.553,62.00000,     -10.62906
652.071,62.05167,     -10.63002
652.588,62.10333,     -10.63057
653.106,62.15500,     -10.63093
653.624,62.20667,     -10.63129
654.141,62.25833,     -10.63184
654.658,62.31000,     -10.63190
655.175,62.36167,     -10.63215
655.691,62.41333,     -10.63221
656.207,62.46500,     -10.63246
656.722,62.51667,     -10.63332
657.236,62.56833,     -10.63468
657.753,62.62000,     -10.63603
658.266,62.67167,     -10.63829
658.781,62.72333,     -10.64075
659.297,62.77500,     -10.64200
659.817,62.82667,     -10.64245
660.335,62.87833,     -10.64230
660.853,62.93000,     -10.64266
661.368,62.98167,     -10.64401
661.884,63.03333,     -10.64547
662.398,63.08500,     -10.64682
662.912,63.13667,     -10.64748
663.43,63.18833,     -10.64773
663.942,63.24000,     -10.64839
664.464,63.29167,     -10.64864
664.982,63.34333,     -10.64879
665.497,63.39500,     -10.64894
666.016,63.44667,     -10.65000
666.528,63.49833,     -10.65145
667.042,63.55000,     -10.65301
667.558,63.60167,     -10.65476
668.076,63.65333,     -10.65661
668.591,63.70500,     -10.65736
669.11,63.75667,     -10.65761
669.632,63.80833,     -10.65776
670.147,63.86000,     -10.65852
670.664,63.91167,     -10.65927
671.182,63.96333,     -10.65962
671.7,64.01500,     -10.65957
672.216,64.06667,     -10.65933
672.733,64.11833,     -10.65908
673.247,64.17000,     -10.65993
673.762,64.22167,     -10.66099
674.276,64.27333,     -10.66164
674.79,64.32500,     -10.66259
675.308,64.37667,     -10.66454
675.825,64.42833,     -10.66749
676.34,64.48000,     -10.67024
676.858,64.53167,     -10.67169
677.377,64.58333,     -10.67224
677.895,64.63500,     -10.67209
678.409,64.68667,     -10.67175
678.927,64.73833,     -10.67140
679.443,64.79000,     -10.67125
679.958,64.84167,     -10.67160
680.473,64.89333,     -10.67235
680.987,64.94500,     -10.67330
681.507,64.99667,     -10.67375
682.024,65.04833,     -10.67440
682.54,65.10000,     -10.67495
683.055,65.15167,     -10.67540
683.572,65.20333,     -10.67605
684.085,65.25500,     -10.67701
684.601,65.30667,     -10.67786
685.114,65.35833,     -10.67921
685.629,65.41000,     -10.68036
686.149,65.46167,     -10.68080
686.664,65.51333,     -10.68135
687.184,65.56500,     -10.68210
687.705,65.61667,     -10.68255
688.22,65.66833,     -10.68310
688.734,65.72000,     -10.68415
689.25,65.77167,     -10.68530
689.767,65.82333,     -10.68635
690.286,65.87500,     -10.68770
690.801,65.92667,     -10.68905
691.318,65.97833,     -10.68980
691.838,66.03000,     -10.68974
692.356,66.08167,     -10.68969
692.874,66.13333,     -10.69024
693.392,66.18500,     -10.69109
693.908,66.23667,     -10.69244
694.423,66.28833,     -10.69379
694.939,66.34000,     -10.69533
695.453,66.39167,     -10.69609
695.971,66.44333,     -10.69643
696.49,66.49500,     -10.69648
697.005,66.54667,     -10.69703
697.519,66.59833,     -10.69768
698.036,66.65000,     -10.69853
698.553,66.70167,     -10.69957
699.072,66.75333,     -10.70012
699.588,66.80500,     -10.70077
700.107,66.85667,     -10.70121
700.622,66.90833,     -10.70176
701.14,66.96000,     -10.70251
701.654,67.01167,     -10.70346
702.163,67.06333,     -10.70471
702.685,67.11500,     -10.70586
703.202,67.16667,     -10.70640
703.718,67.21833,     -10.70705
704.237,67.27000,     -10.70760
704.754,67.32167,     -10.70834
705.271,67.37333,     -10.70879
705.787,67.42500,     -10.70924
706.301,67.47667,     -10.70959
706.819,67.52833,     -10.71014
707.337,67.58000,     -10.71068
707.851,67.63167,     -10.71113
708.37,67.68333,     -10.71178
708.886,67.73500,     -10.71253
709.402,67.78667,     -10.71297
709.921,67.83833,     -10.71352
710.437,67.89000,     -10.71417
710.953,67.94167,     -10.71522
711.467,67.99333,     -10.71636
711.988,68.04500,     -10.71781
712.501,68.09667,     -10.71926
713.016,68.14833,     -10.72051
713.533,68.20000,     -10.72186
714.049,68.25167,     -10.72260
714.568,68.30333,     -10.72335
715.085,68.35500,     -10.72399
715.601,68.40667,     -10.72524
716.116,68.45833,     -10.72599
716.634,68.51000,     -10.72634
717.149,68.56167,     -10.72668
717.665,68.61333,     -10.72703
718.18,68.66500,     -10.72738
718.697,68.71667,     -10.72783
719.211,68.76833,     -10.72827
719.729,68.82000,     -10.72852
720.246,68.87167,     -10.72897
720.763,68.92333,     -10.72971
721.279,68.97500,     -10.73006
721.799,69.02667,     -10.73050
722.316,69.07833,     -10.73115
722.832,69.13000,     -10.73170
723.35,69.18167,     -10.73234
723.865,69.23333,     -10.73309
724.383,69.28500,     -10.73344
724.904,69.33667,     -10.73388
725.42,69.38833,     -10.73443
725.936,69.44000,     -10.73517
726.453,69.49167,     -10.73632
726.967,69.54333,     -10.73747
727.482,69.59500,     -10.73881
727.999,69.64667,     -10.73996
728.515,69.69833,     -10.74130
729.031,69.75000,     -10.74215
729.55,69.80167,     -10.74309
730.068,69.85333,     -10.74404
730.582,69.90500,     -10.74479
731.098,69.95667,     -10.74523
731.616,70.00833,     -10.74538
732.128,70.06000,     -10.74522
732.642,70.11167,     -10.74527
733.161,70.16333,     -10.74541
733.678,70.21500,     -10.74566
734.199,70.26667,     -10.74600
734.718,70.31833,     -10.74644
735.236,70.37000,     -10.74718
735.752,70.42167,     -10.74813
736.267,70.47333,     -10.74898
736.781,70.52500,     -10.75002
737.297,70.57667,     -10.75137
737.81,70.62833,     -10.75241
738.329,70.68000,     -10.75336
738.843,70.73167,     -10.75420
739.36,70.78333,     -10.75464
739.877,70.83500,     -10.75509
740.39,70.88667,     -10.75543
740.909,70.93833,     -10.75607
741.427,70.99000,     -10.75651
741.947,71.04167,     -10.75695
742.461,71.09333,     -10.75770
742.98,71.14500,     -10.75854
743.492,71.19667,     -10.75929
744.008,71.24833,     -10.76003
744.524,71.30000,     -10.76097
745.038,71.35167,     -10.76222
745.553,71.40333,     -10.76326
746.072,71.45500,     -10.76420
746.589,71.50667,     -10.76494
747.103,71.55833,     -10.76578
747.62,71.61000,     -10.76612
748.134,71.66167,     -10.76637
748.653,71.71333,     -10.76641
749.168,71.76500,     -10.76675
749.685,71.81667,     -10.76699
750.206,71.86833,     -10.76713
750.722,71.92000,     -10.76727
751.239,71.97167,     -10.76801
751.756,72.02333,     -10.76865
752.271,72.07500,     -10.76929
752.787,72.12667,     -10.77033
753.302,72.17833,     -10.77097
753.82,72.23000,     -10.77231
754.336,72.28167,     -10.77405
754.852,72.33333,     -10.77499
755.371,72.38500,     -10.77603
755.887,72.43667,     -10.77667
756.401,72.48833,     -10.77741
756.916,72.54000,     -10.77785
757.432,72.59167,     -10.77839
757.948,72.64333,     -10.77893
758.467,72.69500,     -10.77966
758.982,72.74667,     -10.78040
759.498,72.79833,     -10.78144
760.017,72.85000,     -10.78257
760.537,72.90167,     -10.78311
761.053,72.95333,     -10.78385
761.57,73.00500,     -10.78459
762.081,73.05667,     -10.78523
762.6,73.10833,     -10.78556
763.115,73.16000,     -10.78570
763.631,73.21167,     -10.78594
764.147,73.26333,     -10.78607
764.667,73.31500,     -10.78641
765.183,73.36667,     -10.78654
765.701,73.41833,     -10.78658
766.217,73.47000,     -10.78681
766.731,73.52167,     -10.78725
767.249,73.57333,     -10.78808
767.764,73.62500,     -10.78892
768.28,73.67667,     -10.79005
768.795,73.72833,     -10.79099
769.311,73.78000,     -10.79212
769.827,73.83167,     -10.79296
770.34,73.88333,     -10.79350
770.857,73.93500,     -10.79423
771.372,73.98667,     -10.79456
771.893,74.03833,     -10.79509
772.41,74.09000,     -10.79582
772.924,74.14167,     -10.79676
773.444,74.19333,     -10.79789
773.957,74.24500,     -10.79923
774.472,74.29667,     -10.80026
774.99,74.34833,     -10.80079
775.509,74.40000,     -10.80082
776.026,74.45167,     -10.80065
776.545,74.50333,     -10.80098
777.06,74.55500,     -10.80161
777.58,74.60667,     -10.80214
778.097,74.65833,     -10.80287
778.614,74.71000,     -10.80380
779.131,74.76167,     -10.80473
779.645,74.81333,     -10.80547
780.162,74.86500,     -10.80589
780.68,74.91667,     -10.80642
781.197,74.96833,     -10.80685
781.714,75.02000,     -10.80728
782.23,75.07167,     -10.80791
782.75,75.12333,     -10.80834
783.265,75.17500,     -10.80877
783.777,75.22667,     -10.80950
784.295,75.27833,     -10.81032
784.807,75.33000,     -10.81115
785.323,75.38167,     -10.81198
785.838,75.43333,     -10.81301
786.356,75.48500,     -10.81383
786.876,75.53667,     -10.81436
787.394,75.58833,     -10.81468
787.914,75.64000,     -10.81510
788.432,75.69167,     -10.81553
788.951,75.74333,     -10.81595
789.468,75.79500,     -10.81618
789.982,75.84667,     -10.81681
790.497,75.89833,     -10.81773
791.011,75.95000,     -10.81876
791.525,76.00167,     -10.82008
792.04,76.05333,     -10.82081
792.556,76.10500,     -10.82123
793.072,76.15667,     -10.82136
793.591,76.20833,     -10.82158
794.11,76.26000,     -10.82170
794.627,76.31167,     -10.82192
795.145,76.36333,     -10.82224
795.669,76.41500,     -10.82256
796.187,76.46667,     -10.82318
796.703,76.51833,     -10.82380
797.22,76.57000,     -10.82462
797.737,76.62167,     -10.82524
798.253,76.67333,     -10.82597
798.77,76.72500,     -10.82629
799.288,76.77667,     -10.82680
799.505,76.79833,     -10.82733