File: data-raw/TGA/T_TGA.csv
#EXPORTTYPE:                 ,DATA SINGLE
#FILE:                       ,T.ngb-st9
#FORMAT:                     ,NETZSCH5
#FTYPE:                      ,ANSI
#IDENTITY:                   ,Saras
#DECIMAL:                    ,POINT
#SEPARATOR:                  ,COMMA
#MTYPE:                      ,TG
#INSTRUMENT:                 ,NETZSCH TG 209F1 Libra
#PROJECT:                    ,IL
#DATE/TIME:                  ,22/03/2017 1:37:30 PM (UTC+11)
#CORR. FILE:                 ,
#TEMPCAL:                    ,TCALZERO.TCX
#LABORATORY:                 ,Capture Lab
#OPERATOR:                   ,NJN
#REMARK:                     ,Training run
#SAMPLE:                     ,T
#SAMPLE MASS /mg:            ,11.7852
#MATERIAL:                   ,zeolite
#TYPE OF CRUCIBLE:           ,Al2O3
#SAMPLE CRUCIBLE MASS /mg:   ,311.1629
#REFERENCE CRUCIBLE MASS /mg:,
#M.RANGE /mg:                ,2000
#CORR. CODE:                 ,090
#RANGE:                      ,32°C/10.0(K/min)/800°C
#SEGMENT:                    ,S1/1
#SEG. 1:                     ,32°C/10.0(K/min)/800°C

##Temp./°C,Time/min,Mass loss/mg
 31.44500, 0.00000,-1.179295e-003
 31.44600, 0.05167,-3.653379e-003
 31.51100, 0.10333,-5.517238e-003
 31.82900, 0.15500,-5.275345e-003
 32.24100, 0.20667,-4.505919e-003
 32.61900, 0.25833,-5.696927e-003
 32.99400, 0.31000,-7.444782e-003
 33.42800, 0.36167,-9.118117e-003
 33.90500, 0.41333,-1.062703e-002
 34.41300, 0.46500,-1.210829e-002
 34.94500, 0.51667,-1.334478e-002
 35.50700, 0.56833,-1.474829e-002
 36.08400, 0.62000,-1.657609e-002
 36.69300, 0.67167,-1.841358e-002
 37.31900, 0.72333,-2.052252e-002
 37.95700, 0.77500,-2.296527e-002
 38.60400, 0.82667,-2.598633e-002
 39.25500, 0.87833,-2.931630e-002
 39.91200, 0.93000,-3.299880e-002
 40.57100, 0.98167,-3.679500e-002
 41.22400, 1.03333,-4.031102e-002
 41.87500, 1.08500,-4.427940e-002
 42.52100, 1.13667,-4.821437e-002
 43.15800, 1.18833,-5.168980e-002
 43.78800, 1.24000,-5.535217e-002
 44.41400, 1.29167,-5.926964e-002
 45.02600, 1.34333,-6.355798e-002
 45.62100, 1.39500,-6.787325e-002
 46.21400, 1.44667,-7.264319e-002
 46.79000, 1.49833,-7.717981e-002
 47.35500, 1.55000,-8.227720e-002
 47.91700, 1.60167,-8.726203e-002
 48.46400, 1.65333,-9.208981e-002
 49.00300, 1.70500,-9.684184e-002
 49.53400, 1.75667,      -0.10172
 50.05600, 1.80833,      -0.10709
 50.57700, 1.86000,      -0.11209
 51.08700, 1.91167,      -0.11760
 51.59500, 1.96333,      -0.12302
 52.09900, 2.01500,      -0.12938
 52.60000, 2.06667,      -0.13503
 53.09700, 2.11833,      -0.14089
 53.58900, 2.17000,      -0.14675
 54.08300, 2.22167,      -0.15236
 54.57800, 2.27333,      -0.15879
 55.07200, 2.32500,      -0.16449
 55.56800, 2.37667,      -0.17044
 56.06400, 2.42833,      -0.17630
 56.56200, 2.48000,      -0.18235
 57.06100, 2.53167,      -0.18860
 57.56300, 2.58333,      -0.19456
 58.06200, 2.63500,      -0.20060
 58.57100, 2.68667,      -0.20611
 59.08300, 2.73833,      -0.21199
 59.59100, 2.79000,      -0.21794
 60.09800, 2.84167,      -0.22429
 60.61300, 2.89333,      -0.23067
 61.12900, 2.94500,      -0.23723
 61.64600, 2.99667,      -0.24370
 62.16200, 3.04833,      -0.25022
 62.67900, 3.10000,      -0.25727
 63.19800, 3.15167,      -0.26382
 63.71900, 3.20333,      -0.27076
 64.24000, 3.25500,      -0.27690
 64.76300, 3.30667,      -0.28394
 65.28000, 3.35833,      -0.29075
 65.80400, 3.41000,      -0.29730
 66.32600, 3.46167,      -0.30430
 66.84600, 3.51333,      -0.31033
 67.36900, 3.56500,      -0.31685
 67.89300, 3.61667,      -0.32288
 68.41200, 3.66833,      -0.32958
 68.93400, 3.72000,      -0.33560
 69.45500, 3.77167,      -0.34170
 69.97800, 3.82333,      -0.34772
 70.49900, 3.87500,      -0.35402
 71.01500, 3.92667,      -0.36050
 71.53600, 3.97833,      -0.36641
 72.05300, 4.03000,      -0.37292
 72.56800, 4.08167,      -0.37918
 73.08800, 4.13333,      -0.38571
 73.60300, 4.18500,      -0.39200
 74.12200, 4.23667,      -0.39802
 74.64100, 4.28833,      -0.40343
 75.16100, 4.34000,      -0.40815
 75.68100, 4.39167,      -0.41256
 76.20000, 4.44333,      -0.41725
 76.71600, 4.49500,      -0.42294
 77.23300, 4.54667,      -0.42894
 77.75300, 4.59833,      -0.43625
 78.26700, 4.65000,      -0.44254
 78.78600, 4.70167,      -0.44874
 79.29900, 4.75333,      -0.45443
 79.81400, 4.80500,      -0.45952
 80.33200, 4.85667,      -0.46453
 80.85100, 4.90833,      -0.46924
 81.36600, 4.96000,      -0.47412
 81.88000, 5.01167,      -0.47821
 82.39500, 5.06333,      -0.48320
 82.91200, 5.11500,      -0.48791
 83.42900, 5.16667,      -0.49241
 83.94600, 5.21833,      -0.49661
 84.46300, 5.27000,      -0.50121
 84.98000, 5.32167,      -0.50571
 85.49800, 5.37333,      -0.50972
 86.01200, 5.42500,      -0.51460
 86.53300, 5.47667,      -0.51861
 87.05200, 5.52833,      -0.52191
 87.56700, 5.58000,      -0.52560
 88.08300, 5.63167,      -0.53039
 88.60200, 5.68333,      -0.53459
 89.12000, 5.73500,      -0.53888
 89.63800, 5.78667,      -0.54248
 90.15700, 5.83833,      -0.54588
 90.67100, 5.89000,      -0.54916
 91.19000, 5.94167,      -0.55236
 91.70700, 5.99333,      -0.55585
 92.22500, 6.04500,      -0.55904
 92.74500, 6.09667,      -0.56244
 93.26600, 6.14833,      -0.56544
 93.78400, 6.20000,      -0.56893
 94.30200, 6.25167,      -0.57262
 94.81800, 6.30333,      -0.57580
 95.33700, 6.35500,      -0.57930
 95.85200, 6.40667,      -0.58257
 96.37200, 6.45833,      -0.58598
 96.89100, 6.51000,      -0.58897
 97.40800, 6.56167,      -0.59196
 97.92700, 6.61333,      -0.59436
 98.44500, 6.66500,      -0.59653
 98.95500, 6.71667,      -0.59901
 99.47200, 6.76833,      -0.60200
 99.98800, 6.82000,      -0.60469
100.502, 6.87167,      -0.60681
101.018, 6.92333,      -0.60902
101.535, 6.97500,      -0.61093
102.048, 7.02667,      -0.61335
102.566, 7.07833,      -0.61587
103.081, 7.13000,      -0.61848
103.6, 7.18167,      -0.62090
104.115, 7.23333,      -0.62289
104.632, 7.28500,      -0.62491
105.153, 7.33667,      -0.62692
105.667, 7.38833,      -0.62902
106.188, 7.44000,      -0.63042
106.703, 7.49167,      -0.63192
107.218, 7.54333,      -0.63342
107.735, 7.59500,      -0.63541
108.252, 7.64667,      -0.63762
108.767, 7.69833,      -0.64010
109.282, 7.75000,      -0.64238
109.801, 7.80167,      -0.64430
110.316, 7.85333,      -0.64638
110.833, 7.90500,      -0.64797
111.344, 7.95667,      -0.64994
111.86, 8.00833,      -0.65185
112.375, 8.06000,      -0.65332
112.894, 8.11167,      -0.65454
113.411, 8.16333,      -0.65572
113.926, 8.21500,      -0.65680
114.439, 8.26667,      -0.65796
114.959, 8.31833,      -0.65936
115.475, 8.37000,      -0.66065
115.99, 8.42167,      -0.66182
116.507, 8.47333,      -0.66320
117.02, 8.52500,      -0.66467
117.538, 8.57667,      -0.66615
118.055, 8.62833,      -0.66733
118.57, 8.68000,      -0.66860
119.085, 8.73167,      -0.67008
119.601, 8.78333,      -0.67214
120.119, 8.83500,      -0.67453
120.633, 8.88667,      -0.67609
121.151, 8.93833,      -0.67706
121.67, 8.99000,      -0.67894
122.183, 9.04167,      -0.68160
122.701, 9.09333,      -0.68397
123.22, 9.14500,      -0.68544
123.735, 9.19667,      -0.68630
124.251, 9.24833,      -0.68766
124.767, 9.30000,      -0.68962
125.285, 9.35167,      -0.69190
125.803, 9.40333,      -0.69456
126.318, 9.45500,      -0.69731
126.831, 9.50667,      -0.69996
127.346, 9.55833,      -0.70173
127.867, 9.61000,      -0.70310
128.384, 9.66167,      -0.70416
128.901, 9.71333,      -0.70551
129.419, 9.76500,      -0.70697
129.938, 9.81667,      -0.70873
130.458, 9.86833,      -0.71019
130.973, 9.92000,      -0.71213
131.491, 9.97167,      -0.71469
132.008,10.02333,      -0.71733
132.523,10.07500,      -0.72098
133.041,10.12667,      -0.72373
133.553,10.17833,      -0.72657
134.07,10.23000,      -0.72893
134.589,10.28167,      -0.73098
135.108,10.33333,      -0.73274
135.624,10.38500,      -0.73388
136.143,10.43667,      -0.73523
136.658,10.48833,      -0.73686
137.175,10.54000,      -0.74021
137.693,10.59167,      -0.74265
138.212,10.64333,      -0.74560
138.73,10.69500,      -0.74835
139.245,10.74667,      -0.75098
139.762,10.79833,      -0.75403
140.281,10.85000,      -0.75648
140.798,10.90167,      -0.75981
141.315,10.95333,      -0.76305
141.834,11.00500,      -0.76610
142.352,11.05667,      -0.76903
142.868,11.10833,      -0.77247
143.385,11.16000,      -0.77580
143.9,11.21167,      -0.77904
144.422,11.26333,      -0.78179
144.94,11.31500,      -0.78473
145.456,11.36667,      -0.78786
145.971,11.41833,      -0.79149
146.491,11.47000,      -0.79543
147.004,11.52167,      -0.79915
147.521,11.57333,      -0.80349
148.034,11.62500,      -0.80802
148.551,11.67667,      -0.81245
149.064,11.72833,      -0.81589
149.583,11.78000,      -0.81872
150.101,11.83167,      -0.82266
150.618,11.88333,      -0.82669
151.132,11.93500,      -0.83141
151.646,11.98667,      -0.83555
152.164,12.03833,      -0.83978
152.682,12.09000,      -0.84342
153.201,12.14167,      -0.84734
153.718,12.19333,      -0.85158
154.235,12.24500,      -0.85551
154.753,12.29667,      -0.86005
155.268,12.34833,      -0.86437
155.787,12.40000,      -0.86941
156.307,12.45167,      -0.87463
156.821,12.50333,      -0.87976
157.341,12.55500,      -0.88469
157.853,12.60667,      -0.89040
158.371,12.65833,      -0.89584
158.888,12.71000,      -0.90056
159.406,12.76167,      -0.90580
159.922,12.81333,      -0.91022
160.435,12.86500,      -0.91535
160.957,12.91667,      -0.91998
161.471,12.96833,      -0.92490
161.992,13.02000,      -0.93044
162.505,13.07167,      -0.93625
163.02,13.12333,      -0.94177
163.534,13.17500,      -0.94730
164.053,13.22667,      -0.95323
164.572,13.27833,      -0.95826
165.092,13.33000,      -0.96400
165.606,13.38167,      -0.96932
166.124,13.43333,      -0.97504
166.641,13.48500,      -0.98037
167.159,13.53667,      -0.98630
167.676,13.58833,      -0.99222
168.19,13.64000,      -0.99774
168.705,13.69167,      -1.00387
169.218,13.74333,      -1.00949
169.735,13.79500,      -1.01532
170.251,13.84667,      -1.02085
170.768,13.89833,      -1.02688
171.284,13.95000,      -1.03250
171.801,14.00167,      -1.03773
172.317,14.05333,      -1.04305
172.837,14.10500,      -1.04929
173.352,14.15667,      -1.05591
173.867,14.20833,      -1.06214
174.379,14.26000,      -1.06865
174.9,14.31167,      -1.07479
175.415,14.36333,      -1.08141
175.929,14.41500,      -1.08784
176.447,14.46667,      -1.09387
176.962,14.51833,      -1.10019
177.483,14.57000,      -1.10573
177.999,14.62167,      -1.11156
178.516,14.67333,      -1.11708
179.034,14.72500,      -1.12341
179.551,14.77667,      -1.12914
180.071,14.82833,      -1.13548
180.586,14.88000,      -1.14180
181.101,14.93167,      -1.14823
181.62,14.98333,      -1.15476
182.135,15.03500,      -1.16098
182.65,15.08667,      -1.16791
183.168,15.13833,      -1.17394
183.686,15.19000,      -1.18038
184.199,15.24167,      -1.18700
184.716,15.29333,      -1.19414
185.234,15.34500,      -1.20037
185.751,15.39667,      -1.20670
186.268,15.44833,      -1.21194
186.784,15.50000,      -1.21757
187.301,15.55167,      -1.22480
187.819,15.60333,      -1.23153
188.337,15.65500,      -1.23867
188.85,15.70667,      -1.24570
189.369,15.75833,      -1.25364
189.884,15.81000,      -1.26077
190.402,15.86167,      -1.26801
190.917,15.91333,      -1.27454
191.436,15.96500,      -1.28038
191.952,16.01667,      -1.28692
192.471,16.06833,      -1.29335
192.986,16.12000,      -1.30039
193.504,16.17167,      -1.30713
194.022,16.22333,      -1.31407
194.535,16.27500,      -1.32061
195.054,16.32667,      -1.32785
195.571,16.37833,      -1.33579
196.09,16.43000,      -1.34273
196.605,16.48167,      -1.34997
197.124,16.53333,      -1.35731
197.638,16.58500,      -1.36485
198.156,16.63667,      -1.37230
198.672,16.68833,      -1.38024
199.189,16.74000,      -1.38799
199.703,16.79167,      -1.39583
200.222,16.84333,      -1.40358
200.742,16.89500,      -1.41122
201.256,16.94667,      -1.41937
201.777,16.99833,      -1.42712
202.291,17.05000,      -1.43566
202.807,17.10167,      -1.44410
203.32,17.15333,      -1.45355
203.835,17.20500,      -1.46219
204.351,17.25667,      -1.47164
204.87,17.30833,      -1.48129
205.384,17.36000,      -1.48993
205.9,17.41167,      -1.49938
206.417,17.46333,      -1.50843
206.933,17.51500,      -1.51858
207.448,17.56667,      -1.52813
207.97,17.61833,      -1.53828
208.486,17.67000,      -1.54793
209.007,17.72167,      -1.55818
209.524,17.77333,      -1.56913
210.039,17.82500,      -1.57977
210.556,17.87667,      -1.59172
211.07,17.92833,      -1.60316
211.584,17.98000,      -1.61521
212.105,18.03167,      -1.62667
212.622,18.08333,      -1.63872
213.141,18.13500,      -1.65046
213.657,18.18667,      -1.66341
214.174,18.23833,      -1.67636
214.689,18.29000,      -1.68911
215.204,18.34167,      -1.70286
215.72,18.39333,      -1.71551
216.238,18.44500,      -1.72966
216.754,18.49667,      -1.75411
217.274,18.54833,      -1.76426
217.797,18.60000,      -1.77532
218.313,18.65167,      -1.80056
218.831,18.70333,      -1.81041
219.347,18.75500,      -1.82186
219.863,18.80667,      -1.83491
220.377,18.85833,      -1.85906
220.892,18.91000,      -1.87091
221.409,18.96167,      -1.89466
221.925,19.01333,      -1.91191
222.442,19.06500,      -1.92766
222.959,19.11667,      -1.94481
223.474,19.16833,      -1.96156
223.994,19.22000,      -1.97161
224.51,19.27167,      -1.99566
225.024,19.32333,      -2.01301
225.54,19.37500,      -2.02836
226.056,19.42667,      -2.03902
226.571,19.47833,      -2.06567
227.09,19.53000,      -2.07592
227.608,19.58167,      -2.09957
228.122,19.63333,      -2.11812
228.639,19.68500,      -2.13567
229.151,19.73667,      -2.15442
229.669,19.78833,      -2.17197
230.18,19.84000,      -2.19032
230.695,19.89167,      -2.20738
231.214,19.94333,      -2.22573
231.729,19.99500,      -2.24298
232.245,20.04667,      -2.26134
232.761,20.09833,      -2.27969
233.278,20.15000,      -2.29654
233.79,20.20167,      -2.31519
234.309,20.25333,      -2.33154
234.825,20.30500,      -2.34970
235.344,20.35667,      -2.36665
235.862,20.40833,      -2.38450
236.381,20.46000,      -2.40105
236.899,20.51167,      -2.41941
237.415,20.56333,      -2.43686
237.932,20.61500,      -2.45341
238.451,20.66667,      -2.46666
238.967,20.71833,      -2.47871
239.482,20.77000,      -2.50466
239.999,20.82167,      -2.52112
240.515,20.87333,      -2.53857
241.027,20.92500,      -2.55462
241.545,20.97667,      -2.57157
242.063,21.02833,      -2.58893
242.58,21.08000,      -2.60478
243.096,21.13167,      -2.61673
243.611,21.18333,      -2.62828
244.128,21.23500,      -2.65373
244.646,21.28667,      -2.66459
245.163,21.33833,      -2.67894
245.679,21.39000,      -2.69849
246.188,21.44167,      -2.71014
246.709,21.49333,      -2.73309
247.227,21.54500,      -2.74325
247.743,21.59667,      -2.75620
248.261,21.64833,      -2.76865
248.778,21.70000,      -2.79370
249.295,21.75167,      -2.80466
249.81,21.80333,      -2.81781
250.327,21.85500,      -2.84226
250.843,21.90667,      -2.85251
251.361,21.95833,      -2.86496
251.877,22.01000,      -2.88792
252.394,22.06167,      -2.89847
252.913,22.11333,      -2.90992
253.427,22.16500,      -2.92467
253.948,22.21667,      -2.94572
254.464,22.26833,      -2.95717
254.977,22.32000,      -2.96853
255.495,22.37167,      -2.98498
256.008,22.42333,      -3.00353
256.527,22.47500,      -3.01368
257.043,22.52667,      -3.02553
257.563,22.57833,      -3.04388
258.077,22.63000,      -3.06004
258.594,22.68167,      -3.07029
259.107,22.73333,      -3.08194
259.625,22.78500,      -3.09359
260.139,22.83667,      -3.11784
260.658,22.88833,      -3.12769
261.174,22.94000,      -3.13904
261.689,22.99167,      -3.16499
262.205,23.04333,      -3.17394
262.72,23.09500,      -3.18529
263.236,23.14667,      -3.19595
263.751,23.19833,      -3.20880
264.27,23.25000,      -3.22035
264.785,23.30167,      -3.24490
265.305,23.35333,      -3.25405
265.823,23.40500,      -3.26370
266.343,23.45667,      -3.27555
266.857,23.50833,      -3.29410
267.371,23.56000,      -3.31165
267.885,23.61167,      -3.32230
268.402,23.66333,      -3.33475
268.918,23.71500,      -3.34670
269.433,23.76667,      -3.36915
269.948,23.81833,      -3.37840
270.467,23.87000,      -3.38875
270.984,23.92167,      -3.40070
271.501,23.97333,      -3.41865
272.019,24.02500,      -3.43500
272.537,24.07667,      -3.44554
273.053,24.12833,      -3.45779
273.568,24.18000,      -3.47084
274.086,24.23167,      -3.49319
274.6,24.28333,      -3.50374
275.117,24.33500,      -3.51479
275.633,24.38667,      -3.52814
276.148,24.43833,      -3.54928
276.665,24.49000,      -3.56053
277.185,24.54167,      -3.57238
277.701,24.59333,      -3.58733
278.219,24.64500,      -3.60807
278.735,24.69667,      -3.61872
279.255,24.74833,      -3.63117
279.772,24.80000,      -3.64742
280.329,24.85167,      -3.66686
280.848,24.90333,      -3.67821
281.359,24.95500,      -3.69125
281.868,25.00667,      -3.71650
282.375,25.05833,      -3.72755
282.887,25.11000,      -3.74609
283.393,25.16167,      -3.76184
283.906,25.21333,      -3.77649
284.418,25.26500,      -3.79343
284.93,25.31667,      -3.80958
285.444,25.36833,      -3.82753
285.961,25.42000,      -3.83867
286.473,25.47167,      -3.85272
286.991,25.52333,      -3.87516
287.51,25.57500,      -3.88611
288.028,25.62667,      -3.91155
288.543,25.67833,      -3.92900
289.062,25.73000,      -3.94614
289.58,25.78167,      -3.96458
290.094,25.83333,      -3.98163
290.613,25.88500,      -4.00007
291.127,25.93667,      -4.01772
291.641,25.98833,      -4.03586
292.161,26.04000,      -4.05390
292.673,26.09167,      -4.07135
293.19,26.14333,      -4.09039
293.705,26.19500,      -4.10763
294.224,26.24667,      -4.12657
294.742,26.29833,      -4.14462
295.26,26.35000,      -4.16396
295.778,26.40167,      -4.18210
296.295,26.45333,      -4.20164
296.811,26.50500,      -4.22108
297.329,26.55667,      -4.23932
297.845,26.60833,      -4.25896
298.359,26.66000,      -4.27861
298.876,26.71167,      -4.29865
299.393,26.76333,      -4.31809
299.912,26.81500,      -4.33853
300.428,26.86667,      -4.35807
300.947,26.91833,      -4.37901
301.464,26.97000,      -4.40035
301.98,27.02167,      -4.41989
302.5,27.07333,      -4.44093
303.019,27.12500,      -4.46026
303.536,27.17667,      -4.48131
304.052,27.22833,      -4.50175
304.568,27.28000,      -4.52399
305.081,27.33167,      -4.54483
305.6,27.38333,      -4.56777
306.115,27.43500,      -4.59081
306.629,27.48667,      -4.61235
307.148,27.53833,      -4.63519
307.663,27.59000,      -4.65723
308.18,27.64167,      -4.68157
308.695,27.69333,      -4.70371
309.212,27.74500,      -4.72845
309.728,27.79667,      -4.75059
310.243,27.84833,      -4.77503
310.761,27.90000,      -4.79897
311.276,27.95167,      -4.82231
311.794,28.00333,      -4.84735
312.313,28.05500,      -4.87129
312.829,28.10667,      -4.89673
313.346,28.15833,      -4.91947
313.864,28.21000,      -4.94331
314.381,28.26167,      -4.96545
314.895,28.31333,      -4.99049
315.412,28.36500,      -5.01463
315.927,28.41667,      -5.03817
316.446,28.46833,      -5.06351
316.959,28.52000,      -5.08775
317.472,28.57167,      -5.11289
317.987,28.62333,      -5.13543
318.501,28.67500,      -5.15897
319.03,28.72667,      -5.18001
319.546,28.77833,      -5.20265
320.062,28.83000,      -5.22519
320.578,28.88167,      -5.24633
321.089,28.93333,      -5.26857
321.604,28.98500,      -5.28821
322.119,29.03667,      -5.30895
322.631,29.08833,      -5.32849
323.147,29.14000,      -5.34873
323.663,29.19167,      -5.36727
324.175,29.24333,      -5.38611
324.691,29.29500,      -5.40485
325.21,29.34667,      -5.42199
325.728,29.39833,      -5.44043
326.24,29.45000,      -5.45767
326.759,29.50167,      -5.47251
327.27,29.55333,      -5.48375
327.788,29.60500,      -5.49649
328.306,29.65667,      -5.51133
328.82,29.70833,      -5.53457
329.336,29.76000,      -5.54600
329.853,29.81167,      -5.55724
330.369,29.86333,      -5.57048
330.89,29.91500,      -5.59312
331.407,29.96667,      -5.60326
331.925,30.01833,      -5.61370
332.442,30.07000,      -5.62564
332.957,30.12167,      -5.63768
333.471,30.17333,      -5.65072
333.991,30.22500,      -5.66375
334.507,30.27667,      -5.67569
335.02,30.32833,      -5.68883
335.535,30.38000,      -5.69997
336.056,30.43167,      -5.71081
336.574,30.48333,      -5.72235
337.09,30.53500,      -5.73369
337.607,30.58667,      -5.74402
338.126,30.63833,      -5.75466
338.642,30.69000,      -5.76540
339.159,30.74167,      -5.77554
339.677,30.79333,      -5.78588
340.194,30.84500,      -5.79571
340.709,30.89667,      -5.80515
341.224,30.94833,      -5.81539
341.737,31.00000,      -5.82533
342.254,31.05167,      -5.83417
342.773,31.10333,      -5.84390
343.288,31.15500,      -5.85334
343.806,31.20667,      -5.86198
344.323,31.25833,      -5.87152
344.842,31.31000,      -5.88035
345.356,31.36167,      -5.88939
345.872,31.41333,      -5.89833
346.388,31.46500,      -5.90806
346.906,31.51667,      -5.91660
347.421,31.56833,      -5.92514
347.937,31.62000,      -5.93337
348.453,31.67167,      -5.94091
348.973,31.72333,      -5.94925
349.492,31.77500,      -5.95678
350.007,31.82667,      -5.96532
350.525,31.87833,      -5.97345
351.038,31.93000,      -5.98159
351.556,31.98167,      -5.98993
352.072,32.03333,      -5.99786
352.587,32.08500,      -6.00590
353.107,32.13667,      -6.01333
353.622,32.18833,      -6.02117
354.138,32.24000,      -6.02931
354.653,32.29167,      -6.03804
355.169,32.34333,      -6.04568
355.685,32.39500,      -6.05341
356.2,32.44667,      -6.06075
356.716,32.49833,      -6.06878
357.231,32.55000,      -6.07642
357.749,32.60167,      -6.08385
358.267,32.65333,      -6.09219
358.785,32.70500,      -6.09922
359.303,32.75667,      -6.10595
359.82,32.80833,      -6.11199
360.334,32.86000,      -6.11922
360.852,32.91167,      -6.12666
361.365,32.96333,      -6.13489
361.882,33.01500,      -6.14333
362.398,33.06667,      -6.15026
362.912,33.11833,      -6.15849
363.429,33.17000,      -6.16583
363.941,33.22167,      -6.17306
364.457,33.27333,      -6.17949
364.975,33.32500,      -6.18613
365.49,33.37667,      -6.19276
366.011,33.42833,      -6.20029
366.525,33.48000,      -6.20742
367.04,33.53167,      -6.21406
367.558,33.58333,      -6.22109
368.075,33.63500,      -6.22792
368.593,33.68667,      -6.23495
369.113,33.73833,      -6.24158
369.628,33.79000,      -6.24921
370.142,33.84167,      -6.25705
370.658,33.89333,      -6.26498
371.172,33.94500,      -6.27211
371.685,33.99667,      -6.27904
372.204,34.04833,      -6.28517
372.719,34.10000,      -6.29160
373.236,34.15167,      -6.29833
373.756,34.20333,      -6.30456
374.272,34.25500,      -6.31169
374.787,34.30667,      -6.31842
375.305,34.35833,      -6.32555
375.822,34.41000,      -6.33298
376.336,34.46167,      -6.33911
376.856,34.51333,      -6.34574
377.368,34.56500,      -6.35247
377.887,34.61667,      -6.35920
378.404,34.66833,      -6.36463
378.919,34.72000,      -6.37086
379.439,34.77167,      -6.37728
379.957,34.82333,      -6.38541
380.471,34.87500,      -6.39374
380.987,34.92667,      -6.40047
381.501,34.97833,      -6.40740
382.015,35.03000,      -6.41393
382.53,35.08167,      -6.42026
383.047,35.13333,      -6.42698
383.561,35.18500,      -6.43331
384.079,35.23667,      -6.43913
384.597,35.28833,      -6.44516
385.112,35.34000,      -6.45119
385.632,35.39167,      -6.45711
386.151,35.44333,      -6.46284
386.664,35.49500,      -6.46877
387.181,35.54667,      -6.47579
387.696,35.59833,      -6.48282
388.21,35.65000,      -6.49125
388.722,35.70167,      -6.49857
389.24,35.75333,      -6.50549
389.757,35.80500,      -6.51082
390.276,35.85667,      -6.51484
390.795,35.90833,      -6.52066
391.311,35.96000,      -6.52719
391.826,36.01167,      -6.53351
392.345,36.06333,      -6.53994
392.859,36.11500,      -6.54706
393.377,36.16667,      -6.55218
393.894,36.21833,      -6.55791
394.408,36.27000,      -6.56453
394.926,36.32167,      -6.57195
395.441,36.37333,      -6.57958
395.954,36.42500,      -6.58550
396.472,36.47667,      -6.59132
396.989,36.52833,      -6.59614
397.507,36.58000,      -6.60126
398.027,36.63167,      -6.60678
398.541,36.68333,      -6.61391
399.056,36.73500,      -6.62143
399.573,36.78667,      -6.62695
400.09,36.83833,      -6.63297
400.608,36.89000,      -6.63759
401.128,36.94167,      -6.64281
401.645,36.99333,      -6.64863
402.158,37.04500,      -6.65555
402.674,37.09667,      -6.66237
403.186,37.14833,      -6.67019
403.699,37.20000,      -6.67632
404.215,37.25167,      -6.68173
404.731,37.30333,      -6.68705
405.247,37.35500,      -6.69307
405.76,37.40667,      -6.69979
406.277,37.45833,      -6.70581
406.796,37.51000,      -6.71193
407.311,37.56167,      -6.71764
407.83,37.61333,      -6.72326
408.346,37.66500,      -6.72938
408.862,37.71667,      -6.73490
409.384,37.76833,      -6.74051
409.899,37.82000,      -6.74683
410.412,37.87167,      -6.75316
410.93,37.92333,      -6.75907
411.444,37.97500,      -6.76509
411.963,38.02667,      -6.77051
412.479,38.07833,      -6.77632
412.995,38.13000,      -6.78144
413.514,38.18167,      -6.78706
414.029,38.23333,      -6.79348
414.546,38.28500,      -6.79919
415.063,38.33667,      -6.80551
415.578,38.38833,      -6.81093
416.094,38.44000,      -6.81644
416.611,38.49167,      -6.82226
417.127,38.54333,      -6.82758
417.644,38.59500,      -6.83289
418.161,38.64667,      -6.83791
418.678,38.69833,      -6.84372
419.196,38.75000,      -6.84944
419.712,38.80167,      -6.85505
420.229,38.85333,      -6.86127
420.742,38.90500,      -6.86859
421.262,38.95667,      -6.87450
421.776,39.00833,      -6.88002
422.293,39.06000,      -6.88583
422.805,39.11167,      -6.89135
423.323,39.16333,      -6.89807
423.837,39.21500,      -6.90438
424.352,39.26667,      -6.90990
424.867,39.31833,      -6.91501
425.385,39.37000,      -6.92062
425.899,39.42167,      -6.92624
426.417,39.47333,      -6.93225
426.932,39.52500,      -6.93837
427.447,39.57667,      -6.94388
427.965,39.62833,      -6.94929
428.484,39.68000,      -6.95420
428.999,39.73167,      -6.96012
429.518,39.78333,      -6.96543
430.035,39.83500,      -6.97145
430.549,39.88667,      -6.97746
431.064,39.93833,      -6.98367
431.579,39.99000,      -6.99069
432.095,40.04167,      -6.99670
432.612,40.09333,      -7.00241
433.128,40.14500,      -7.00782
433.643,40.19667,      -7.01384
434.162,40.24833,      -7.01845
434.677,40.30000,      -7.02376
435.193,40.35167,      -7.02927
435.707,40.40333,      -7.03499
436.226,40.45500,      -7.04100
436.74,40.50667,      -7.04641
437.256,40.55833,      -7.05212
437.776,40.61000,      -7.05773
438.291,40.66167,      -7.06364
438.809,40.71333,      -7.06935
439.325,40.76500,      -7.07506
439.84,40.81667,      -7.07988
440.357,40.86833,      -7.08529
440.874,40.92000,      -7.09110
441.386,40.97167,      -7.09651
441.903,41.02333,      -7.10242
442.42,41.07500,      -7.10773
442.94,41.12667,      -7.11334
443.454,41.17833,      -7.11835
443.974,41.23000,      -7.12476
444.489,41.28167,      -7.13007
445.007,41.33333,      -7.13438
445.523,41.38500,      -7.13979
446.039,41.43667,      -7.14490
446.555,41.48833,      -7.15051
447.071,41.54000,      -7.15542
447.586,41.59167,      -7.16103
448.099,41.64333,      -7.16744
448.616,41.69500,      -7.17345
449.131,41.74667,      -7.17885
449.647,41.79833,      -7.18446
450.164,41.85000,      -7.19047
450.682,41.90167,      -7.19628
451.197,41.95333,      -7.20189
451.715,42.00500,      -7.20719
452.233,42.05667,      -7.21250
452.75,42.10833,      -7.21711
453.266,42.16000,      -7.22242
453.782,42.21167,      -7.22772
454.298,42.26333,      -7.23313
454.816,42.31500,      -7.23864
455.33,42.36667,      -7.24315
455.846,42.41833,      -7.24836
456.362,42.47000,      -7.25326
456.879,42.52167,      -7.25827
457.394,42.57333,      -7.26318
457.913,42.62500,      -7.26868
458.429,42.67667,      -7.27349
458.943,42.72833,      -7.27900
459.462,42.78000,      -7.28470
459.977,42.83167,      -7.29011
460.495,42.88333,      -7.29551
461.011,42.93500,      -7.30022
461.525,42.98667,      -7.30533
462.043,43.03833,      -7.31003
462.556,43.09000,      -7.31484
463.076,43.14167,      -7.31964
463.592,43.19333,      -7.32415
464.108,43.24500,      -7.32905
464.625,43.29667,      -7.33386
465.142,43.34833,      -7.33896
465.658,43.40000,      -7.34407
466.172,43.45167,      -7.34947
466.686,43.50333,      -7.35408
467.205,43.55500,      -7.35938
467.72,43.60667,      -7.36469
468.236,43.65833,      -7.37029
468.75,43.71000,      -7.37620
469.263,43.76167,      -7.38120
469.778,43.81333,      -7.38651
470.294,43.86500,      -7.39091
470.809,43.91667,      -7.39531
471.329,43.96833,      -7.39921
471.843,44.02000,      -7.40402
472.362,44.07167,      -7.40852
472.874,44.12333,      -7.41323
473.393,44.17500,      -7.41823
473.908,44.22667,      -7.42233
474.422,44.27833,      -7.42653
474.941,44.33000,      -7.43033
475.456,44.38167,      -7.43444
475.972,44.43333,      -7.43844
476.491,44.48500,      -7.44274
477.007,44.53667,      -7.44664
477.525,44.58833,      -7.45015
478.04,44.64000,      -7.45435
478.557,44.69167,      -7.45865
479.074,44.74333,      -7.46305
479.585,44.79500,      -7.46676
480.103,44.84667,      -7.47056
480.618,44.89833,      -7.47376
481.134,44.95000,      -7.47676
481.651,45.00167,      -7.47986
482.168,45.05333,      -7.48326
482.682,45.10500,      -7.48656
483.202,45.15667,      -7.49036
483.716,45.20833,      -7.49416
484.232,45.26000,      -7.49766
484.751,45.31167,      -7.50156
485.266,45.36333,      -7.50496
485.782,45.41500,      -7.50806
486.3,45.46667,      -7.51146
486.818,45.51833,      -7.51476
487.333,45.57000,      -7.51826
487.847,45.62167,      -7.52147
488.361,45.67333,      -7.52507
488.877,45.72500,      -7.52797
489.392,45.77667,      -7.53087
489.912,45.82833,      -7.53366
490.427,45.88000,      -7.53616
490.945,45.93167,      -7.53876
491.464,45.98333,      -7.54165
491.977,46.03500,      -7.54475
492.499,46.08667,      -7.54755
493.013,46.13833,      -7.55015
493.531,46.19000,      -7.55255
494.047,46.24167,      -7.55495
494.563,46.29333,      -7.55725
495.079,46.34500,      -7.56004
495.592,46.39667,      -7.56255
496.108,46.44833,      -7.56504
496.626,46.50000,      -7.56824
497.144,46.55167,      -7.57103
497.657,46.60333,      -7.57373
498.172,46.65500,      -7.57633
498.686,46.70667,      -7.57893
499.203,46.75833,      -7.58093
499.719,46.81000,      -7.58312
500.234,46.86167,      -7.58592
500.752,46.91333,      -7.58841
501.267,46.96500,      -7.59081
501.783,47.01667,      -7.59231
502.301,47.06833,      -7.59370
502.817,47.12000,      -7.59510
503.336,47.17167,      -7.59680
503.853,47.22333,      -7.59929
504.37,47.27500,      -7.60229
504.885,47.32667,      -7.60508
505.402,47.37833,      -7.60738
505.918,47.43000,      -7.60938
506.435,47.48167,      -7.61097
506.95,47.53333,      -7.61187
507.466,47.58500,      -7.61407
507.981,47.63667,      -7.61646
508.497,47.68833,      -7.61886
509.013,47.74000,      -7.62135
509.531,47.79167,      -7.62305
510.046,47.84333,      -7.62404
510.564,47.89500,      -7.62514
511.081,47.94667,      -7.62633
511.598,47.99833,      -7.62792
512.113,48.05000,      -7.62982
512.626,48.10167,      -7.63252
513.142,48.15333,      -7.63481
513.659,48.20500,      -7.63701
514.173,48.25667,      -7.63970
514.689,48.30833,      -7.64200
515.207,48.36000,      -7.64419
515.72,48.41167,      -7.64609
516.238,48.46333,      -7.64828
516.752,48.51500,      -7.65017
517.266,48.56667,      -7.65227
517.782,48.61833,      -7.65416
518.3,48.67000,      -7.65636
518.813,48.72167,      -7.65865
519.328,48.77333,      -7.66085
519.843,48.82500,      -7.66294
520.363,48.87667,      -7.66453
520.878,48.92833,      -7.66582
521.397,48.98000,      -7.66681
521.915,49.03167,      -7.66751
522.431,49.08333,      -7.66900
522.945,49.13500,      -7.67060
523.464,49.18667,      -7.67219
523.981,49.23833,      -7.67318
524.498,49.29000,      -7.67417
525.016,49.34167,      -7.67546
525.529,49.39333,      -7.67696
526.045,49.44500,      -7.67875
526.563,49.49667,      -7.68104
527.081,49.54833,      -7.68314
527.593,49.60000,      -7.68493
528.114,49.65167,      -7.68622
528.629,49.70333,      -7.68771
529.144,49.75500,      -7.68951
529.655,49.80667,      -7.69160
530.173,49.85833,      -7.69429
530.687,49.91000,      -7.69648
531.202,49.96167,      -7.69838
531.718,50.01333,      -7.70047
532.233,50.06500,      -7.70196
532.75,50.11667,      -7.70295
533.267,50.16833,      -7.70374
533.788,50.22000,      -7.70452
534.31,50.27167,      -7.70521
534.826,50.32333,      -7.70610
535.345,50.37500,      -7.70819
535.861,50.42667,      -7.71058
536.375,50.47833,      -7.71318
536.886,50.53000,      -7.71567
537.398,50.58167,      -7.71827
537.913,50.63333,      -7.71976
538.433,50.68500,      -7.72064
538.947,50.73667,      -7.72123
539.468,50.78833,      -7.72162
539.983,50.84000,      -7.72201
540.502,50.89167,      -7.72279
541.021,50.94333,      -7.72368
541.537,50.99500,      -7.72537
542.052,51.04667,      -7.72776
542.567,51.09833,      -7.73046
543.081,51.15000,      -7.73304
543.596,51.20167,      -7.73473
544.114,51.25333,      -7.73612
544.631,51.30500,      -7.73731
545.146,51.35667,      -7.73840
545.664,51.40833,      -7.73928
546.182,51.46000,      -7.74017
546.697,51.51167,      -7.74136
547.212,51.56333,      -7.74265
547.728,51.61500,      -7.74374
548.243,51.66667,      -7.74472
548.76,51.71833,      -7.74591
549.275,51.77000,      -7.74700
549.793,51.82167,      -7.74839
550.309,51.87333,      -7.75027
550.828,51.92500,      -7.75266
551.346,51.97667,      -7.75474
551.857,52.02833,      -7.75613
552.375,52.08000,      -7.75702
552.891,52.13167,      -7.75721
553.406,52.18333,      -7.75829
553.92,52.23500,      -7.75978
554.434,52.28667,      -7.76177
554.951,52.33833,      -7.76325
555.467,52.39000,      -7.76464
555.981,52.44167,      -7.76602
556.499,52.49333,      -7.76721
557.017,52.54500,      -7.76799
557.534,52.59667,      -7.76857
558.052,52.64833,      -7.76936
558.572,52.70000,      -7.77034
559.084,52.75167,      -7.77213
559.6,52.80333,      -7.77422
560.116,52.85500,      -7.77640
560.631,52.90667,      -7.77849
561.145,52.95833,      -7.78027
561.662,53.01000,      -7.78215
562.178,53.06167,      -7.78314
562.698,53.11333,      -7.78382
563.216,53.16500,      -7.78440
563.734,53.21667,      -7.78518
564.25,53.26833,      -7.78607
564.766,53.32000,      -7.78725
565.281,53.37167,      -7.78884
565.798,53.42333,      -7.79032
566.316,53.47500,      -7.79160
566.829,53.52667,      -7.79359
567.348,53.57833,      -7.79577
567.864,53.63000,      -7.79675
568.383,53.68167,      -7.79743
568.9,53.73333,      -7.79761
569.418,53.78500,      -7.79829
569.934,53.83667,      -7.79887
570.453,53.88833,      -7.79975
570.971,53.94000,      -7.80083
571.49,53.99167,      -7.80201
572.007,54.04333,      -7.80329
572.525,54.09500,      -7.80428
573.043,54.14667,      -7.80565
573.557,54.19833,      -7.80694
574.077,54.25000,      -7.80822
574.596,54.30167,      -7.80950
575.108,54.35333,      -7.81138
575.626,54.40500,      -7.81396
576.146,54.45667,      -7.81584
576.661,54.50833,      -7.81762
577.178,54.56000,      -7.81960
577.692,54.61167,      -7.82178
578.208,54.66333,      -7.82366
578.724,54.71500,      -7.82504
579.239,54.76667,      -7.82572
579.756,54.81833,      -7.82629
580.273,54.87000,      -7.82687
580.791,54.92167,      -7.82775
581.302,54.97333,      -7.82903
581.821,55.02500,      -7.83051
582.338,55.07667,      -7.83228
582.852,55.12833,      -7.83416
583.37,55.18000,      -7.83574
583.887,55.23167,      -7.83691
584.406,55.28333,      -7.83839
584.921,55.33500,      -7.84067
585.44,55.38667,      -7.84274
585.959,55.43833,      -7.84402
586.475,55.49000,      -7.84450
586.994,55.54167,      -7.84467
587.508,55.59333,      -7.84515
588.026,55.64500,      -7.84562
588.54,55.69667,      -7.84680
589.058,55.74833,      -7.84768
589.577,55.80000,      -7.84905
590.094,55.85167,      -7.85053
590.608,55.90333,      -7.85320
591.128,55.95500,      -7.85527
591.643,56.00667,      -7.85775
592.157,56.05833,      -7.86013
592.672,56.11000,      -7.86240
593.188,56.16167,      -7.86468
593.705,56.21333,      -7.86675
594.224,56.26500,      -7.86842
594.743,56.31667,      -7.86939
595.263,56.36833,      -7.87006
595.779,56.42000,      -7.87074
596.292,56.47167,      -7.87161
596.812,56.52333,      -7.87279
597.326,56.57500,      -7.87376
597.841,56.62667,      -7.87463
598.358,56.67833,      -7.87510
598.879,56.73000,      -7.87597
599.393,56.78167,      -7.87674
599.912,56.83333,      -7.87792
600.427,56.88500,      -7.87909
600.943,56.93667,      -7.88066
601.46,56.98833,      -7.88233
601.974,57.04000,      -7.88410
602.488,57.09167,      -7.88588
603.006,57.14333,      -7.88715
603.522,57.19500,      -7.88831
604.04,57.24667,      -7.88948
604.558,57.29833,      -7.89045
605.079,57.35000,      -7.89132
605.6,57.40167,      -7.89269
606.113,57.45333,      -7.89496
606.626,57.50500,      -7.89793
607.143,57.55667,      -7.90030
607.661,57.60833,      -7.90177
608.174,57.66000,      -7.90344
608.69,57.71167,      -7.90551
609.205,57.76333,      -7.90708
609.723,57.81500,      -7.90814
610.237,57.86667,      -7.90891
610.757,57.91833,      -7.90978
611.274,57.97000,      -7.91074
611.794,58.02167,      -7.91161
612.308,58.07333,      -7.91248
612.825,58.12500,      -7.91345
613.34,58.17667,      -7.91412
613.855,58.22833,      -7.91488
614.368,58.28000,      -7.91546
614.885,58.33167,      -7.91642
615.399,58.38333,      -7.91749
615.917,58.43500,      -7.91855
616.434,58.48667,      -7.91982
616.954,58.53833,      -7.92108
617.47,58.59000,      -7.92245
617.99,58.64167,      -7.92351
618.509,58.69333,      -7.92437
619.024,58.74500,      -7.92514
619.541,58.79667,      -7.92641
620.057,58.84833,      -7.92747
620.571,58.90000,      -7.92844
621.085,58.95167,      -7.92961
621.604,59.00333,      -7.93037
622.122,59.05500,      -7.93123
622.633,59.10667,      -7.93190
623.15,59.15833,      -7.93296
623.667,59.21000,      -7.93412
624.181,59.26167,      -7.93579
624.696,59.31333,      -7.93735
625.215,59.36500,      -7.93892
625.733,59.41667,      -7.94028
626.253,59.46833,      -7.94144
626.766,59.52000,      -7.94350
627.283,59.57167,      -7.94457
627.8,59.62333,      -7.94553
628.311,59.67500,      -7.94640
628.828,59.72667,      -7.94756
629.345,59.77833,      -7.94892
629.859,59.83000,      -7.95028
630.378,59.88167,      -7.95204
630.893,59.93333,      -7.95360
631.409,59.98500,      -7.95547
631.926,60.03667,      -7.95713
632.444,60.08833,      -7.95719
632.962,60.14000,      -7.95735
633.48,60.19167,      -7.95771
633.996,60.24333,      -7.95837
634.511,60.29500,      -7.95913
635.026,60.34667,      -7.95959
635.541,60.39833,      -7.95936
636.057,60.45000,      -7.95932
636.575,60.50167,      -7.96008
637.091,60.55333,      -7.96143
637.61,60.60500,      -7.96309
638.129,60.65667,      -7.96515
638.646,60.70833,      -7.96691
639.162,60.76000,      -7.96797
639.677,60.81167,      -7.96913
640.195,60.86333,      -7.96969
640.71,60.91500,      -7.97045
641.222,60.96667,      -7.97131
641.738,61.01833,      -7.97267
642.253,61.07000,      -7.97363
642.768,61.12167,      -7.97489
643.285,61.17333,      -7.97555
643.803,61.22500,      -7.97600
644.319,61.27667,      -7.97656
644.837,61.32833,      -7.97722
645.354,61.38000,      -7.97808
645.872,61.43167,      -7.97913
646.386,61.48333,      -7.98039
646.9,61.53500,      -7.98166
647.416,61.58667,      -7.98291
647.929,61.63833,      -7.98387
648.445,61.69000,      -7.98473
648.962,61.74167,      -7.98558
649.477,61.79333,      -7.98634
649.998,61.84500,      -7.98719
650.517,61.89667,      -7.98815
651.033,61.94833,      -7.98921
651.55,62.00000,      -7.99036
652.067,62.05167,      -7.99132
652.583,62.10333,      -7.99198
653.098,62.15500,      -7.99233
653.61,62.20667,      -7.99289
654.126,62.25833,      -7.99365
654.64,62.31000,      -7.99461
655.153,62.36167,      -7.99596
655.668,62.41333,      -7.99772
656.185,62.46500,      -7.99877
656.705,62.51667,      -7.99982
657.223,62.56833,      -8.00068
657.739,62.62000,      -8.00123
658.257,62.67167,      -8.00169
658.773,62.72333,      -8.00194
659.292,62.77500,      -8.00230
659.809,62.82667,      -8.00265
660.323,62.87833,      -8.00301
660.837,62.93000,      -8.00347
661.355,62.98167,      -8.00402
661.871,63.03333,      -8.00457
662.384,63.08500,      -8.00543
662.901,63.13667,      -8.00658
663.421,63.18833,      -8.00793
663.938,63.24000,      -8.00989
664.452,63.29167,      -8.01214
664.969,63.34333,      -8.01349
665.483,63.39500,      -8.01405
666.003,63.44667,      -8.01420
666.522,63.49833,      -8.01425
667.038,63.55000,      -8.01460
667.559,63.60167,      -8.01536
668.073,63.65333,      -8.01621
668.589,63.70500,      -8.01707
669.108,63.75667,      -8.01801
669.625,63.80833,      -8.01877
670.143,63.86000,      -8.01952
670.66,63.91167,      -8.02037
671.176,63.96333,      -8.02132
671.692,64.01500,      -8.02208
672.207,64.06667,      -8.02263
672.724,64.11833,      -8.02288
673.238,64.17000,      -8.02334
673.754,64.22167,      -8.02369
674.272,64.27333,      -8.02454
674.791,64.32500,      -8.02499
675.311,64.37667,      -8.02584
675.823,64.42833,      -8.02699
676.338,64.48000,      -8.02795
676.854,64.53167,      -8.02980
677.373,64.58333,      -8.03195
677.884,64.63500,      -8.03360
678.405,64.68667,      -8.03475
678.916,64.73833,      -8.03580
679.432,64.79000,      -8.03696
679.949,64.84167,      -8.03780
680.464,64.89333,      -8.03886
680.981,64.94500,      -8.03950
681.499,64.99667,      -8.03955
682.018,65.04833,      -8.03960
682.536,65.10000,      -8.03955
683.051,65.15167,      -8.03940
683.573,65.20333,      -8.03925
684.09,65.25500,      -8.03930
684.606,65.30667,      -8.03965
685.119,65.35833,      -8.04040
685.637,65.41000,      -8.04105
686.151,65.46167,      -8.04161
686.671,65.51333,      -8.04205
687.187,65.56500,      -8.04240
687.704,65.61667,      -8.04295
688.224,65.66833,      -8.04350
688.739,65.72000,      -8.04435
689.256,65.77167,      -8.04530
689.77,65.82333,      -8.04595
690.284,65.87500,      -8.04640
690.798,65.92667,      -8.04735
691.313,65.97833,      -8.04850
691.83,66.03000,      -8.04975
692.348,66.08167,      -8.05069
692.867,66.13333,      -8.05154
693.382,66.18500,      -8.05239
693.903,66.23667,      -8.05284
694.419,66.28833,      -8.05328
694.932,66.34000,      -8.05394
695.45,66.39167,      -8.05479
695.965,66.44333,      -8.05614
696.48,66.49500,      -8.05849
696.995,66.54667,      -8.06033
697.511,66.59833,      -8.06158
698.028,66.65000,      -8.06213
698.544,66.70167,      -8.06247
699.065,66.75333,      -8.06272
699.586,66.80500,      -8.06246
700.104,66.85667,      -8.06201
700.62,66.90833,      -8.06176
701.134,66.96000,      -8.06181
701.648,67.01167,      -8.06216
702.161,67.06333,      -8.06331
702.677,67.11500,      -8.06466
703.193,67.16667,      -8.06571
703.713,67.21833,      -8.06675
704.236,67.27000,      -8.06759
704.756,67.32167,      -8.06814
705.273,67.37333,      -8.06879
705.789,67.42500,      -8.06924
706.308,67.47667,      -8.06959
706.821,67.52833,      -8.07014
707.338,67.58000,      -8.07118
707.853,67.63167,      -8.07223
708.371,67.68333,      -8.07298
708.888,67.73500,      -8.07333
709.407,67.78667,      -8.07367
709.923,67.83833,      -8.07372
710.439,67.89000,      -8.07387
710.952,67.94167,      -8.07392
711.467,67.99333,      -8.07427
711.982,68.04500,      -8.07451
712.499,68.09667,      -8.07476
713.018,68.14833,      -8.07531
713.531,68.20000,      -8.07635
714.052,68.25167,      -8.07750
714.57,68.30333,      -8.07885
715.088,68.35500,      -8.08019
715.604,68.40667,      -8.08124
716.119,68.45833,      -8.08219
716.636,68.51000,      -8.08264
717.152,68.56167,      -8.08298
717.668,68.61333,      -8.08343
718.182,68.66500,      -8.08398
718.696,68.71667,      -8.08453
719.213,68.76833,      -8.08487
719.73,68.82000,      -8.08502
720.248,68.87167,      -8.08497
720.765,68.92333,      -8.08541
721.28,68.97500,      -8.08586
721.795,69.02667,      -8.08651
722.314,69.07833,      -8.08695
722.824,69.13000,      -8.08770
723.339,69.18167,      -8.08875
723.855,69.23333,      -8.08960
724.373,69.28500,      -8.09064
724.891,69.33667,      -8.09129
725.405,69.38833,      -8.09213
725.923,69.44000,      -8.09298
726.444,69.49167,      -8.09382
726.959,69.54333,      -8.09447
727.477,69.59500,      -8.09501
727.992,69.64667,      -8.09556
728.511,69.69833,      -8.09611
729.02,69.75000,      -8.09706
729.538,69.80167,      -8.09810
730.052,69.85333,      -8.09955
730.568,69.90500,      -8.10059
731.086,69.95667,      -8.10163
731.603,70.00833,      -8.10198
732.118,70.06000,      -8.10253
732.636,70.11167,      -8.10337
733.156,70.16333,      -8.10371
733.675,70.21500,      -8.10385
734.193,70.26667,      -8.10370
734.711,70.31833,      -8.10324
735.225,70.37000,      -8.10299
735.742,70.42167,      -8.10274
736.257,70.47333,      -8.10238
736.773,70.52500,      -8.10252
737.288,70.57667,      -8.10297
737.802,70.62833,      -8.10412
738.316,70.68000,      -8.10556
738.832,70.73167,      -8.10791
739.345,70.78333,      -8.11125
739.859,70.83500,      -8.11409
740.377,70.88667,      -8.11534
740.895,70.93833,      -8.11488
741.416,70.99000,      -8.11402
741.928,71.04167,      -8.11356
742.446,71.09333,      -8.11370
742.962,71.14500,      -8.11425
743.479,71.19667,      -8.11549
743.996,71.24833,      -8.11653
744.518,71.30000,      -8.11657
745.031,71.35167,      -8.11602
745.548,71.40333,      -8.11596
746.062,71.45500,      -8.11620
746.579,71.50667,      -8.11694
747.094,71.55833,      -8.11758
747.614,71.61000,      -8.11893
748.129,71.66167,      -8.12077
748.645,71.71333,      -8.12251
749.162,71.76500,      -8.12365
749.679,71.81667,      -8.12399
750.199,71.86833,      -8.12363
750.715,71.92000,      -8.12327
751.236,71.97167,      -8.12301
751.752,72.02333,      -8.12265
752.266,72.07500,      -8.12229
752.782,72.12667,      -8.12213
753.294,72.17833,      -8.12218
753.811,72.23000,      -8.12302
754.329,72.28167,      -8.12385
754.846,72.33333,      -8.12509
755.364,72.38500,      -8.12553
755.883,72.43667,      -8.12567
756.399,72.48833,      -8.12621
756.917,72.54000,      -8.12744
757.434,72.59167,      -8.12878
757.948,72.64333,      -8.13003
758.461,72.69500,      -8.13146
758.978,72.74667,      -8.13240
759.492,72.79833,      -8.13354
760.004,72.85000,      -8.13478
760.522,72.90167,      -8.13582
761.038,72.95333,      -8.13625
761.556,73.00500,      -8.13629
762.076,73.05667,      -8.13583
762.591,73.10833,      -8.13516
763.104,73.16000,      -8.13500
763.62,73.21167,      -8.13574
764.132,73.26333,      -8.13678
764.651,73.31500,      -8.13741
765.17,73.36667,      -8.13835
765.685,73.41833,      -8.14018
766.2,73.47000,      -8.14192
766.715,73.52167,      -8.14266
767.234,73.57333,      -8.14319
767.752,73.62500,      -8.14382
768.27,73.67667,      -8.14386
768.787,73.72833,      -8.14369
769.304,73.78000,      -8.14342
769.822,73.83167,      -8.14336
770.334,73.88333,      -8.14420
770.849,73.93500,      -8.14643
771.364,73.98667,      -8.14877
771.88,74.03833,      -8.14920
772.399,74.09000,      -8.14893
772.915,74.14167,      -8.14936
773.437,74.19333,      -8.14999
773.955,74.24500,      -8.15042
774.469,74.29667,      -8.15086
774.986,74.34833,      -8.15109
775.5,74.40000,      -8.15162
776.015,74.45167,      -8.15316
776.53,74.50333,      -8.15599
777.049,74.55500,      -8.15782
777.569,74.60667,      -8.15895
778.085,74.65833,      -8.15928
778.606,74.71000,      -8.15900
779.123,74.76167,      -8.15834
779.641,74.81333,      -8.15766
780.158,74.86500,      -8.15729
780.675,74.91667,      -8.15712
781.188,74.96833,      -8.15706
781.703,75.02000,      -8.15749
782.22,75.07167,      -8.15821
782.733,75.12333,      -8.15924
783.253,75.17500,      -8.16027
783.772,75.22667,      -8.16130
784.286,75.27833,      -8.16262
784.802,75.33000,      -8.16425
785.318,75.38167,      -8.16518
785.838,75.43333,      -8.16560
786.355,75.48500,      -8.16553
786.871,75.53667,      -8.16556
787.388,75.58833,      -8.16609
787.905,75.64000,      -8.16671
788.419,75.69167,      -8.16784
788.935,75.74333,      -8.16936
789.451,75.79500,      -8.17099
789.972,75.84667,      -8.17221
790.489,75.89833,      -8.17303
791.007,75.95000,      -8.17336
791.524,76.00167,      -8.17308
792.042,76.05333,      -8.17281
792.557,76.10500,      -8.17293
793.071,76.15667,      -8.17366
793.587,76.20833,      -8.17458
794.105,76.26000,      -8.17560
794.621,76.31167,      -8.17652
795.138,76.36333,      -8.17745
795.654,76.41500,      -8.17857
796.173,76.46667,      -8.17959
796.692,76.51833,      -8.18041
797.211,76.57000,      -8.18083
797.728,76.62167,      -8.18135
798.245,76.67333,      -8.18187
798.76,76.72500,      -8.18219
799.278,76.77667,      -8.18231
799.493,76.79833,      -8.18233