File: data-raw/TGA/V_TGA.csv
#EXPORTTYPE:                 ,DATA SINGLE
#FILE:                       ,V.ngb-st9
#FORMAT:                     ,NETZSCH5
#FTYPE:                      ,ANSI
#IDENTITY:                   ,Saras
#DECIMAL:                    ,POINT
#SEPARATOR:                  ,COMMA
#MTYPE:                      ,TG
#INSTRUMENT:                 ,NETZSCH TG 209F1 Libra
#PROJECT:                    ,IL
#DATE/TIME:                  ,23/03/2017 9:07:49 AM (UTC+11)
#CORR. FILE:                 ,
#TEMPCAL:                    ,TCALZERO.TCX
#LABORATORY:                 ,Capture Lab
#OPERATOR:                   ,NJN
#REMARK:                     ,Training run
#SAMPLE:                     ,V
#SAMPLE MASS /mg:            ,16.7750
#MATERIAL:                   ,zeolite
#TYPE OF CRUCIBLE:           ,Al2O3
#SAMPLE CRUCIBLE MASS /mg:   ,311.1670
#REFERENCE CRUCIBLE MASS /mg:,
#M.RANGE /mg:                ,2000
#CORR. CODE:                 ,090
#RANGE:                      ,32°C/10.0(K/min)/800°C
#SEGMENT:                    ,S1/1
#SEG. 1:                     ,32°C/10.0(K/min)/800°C

##Temp./°C,Time/min,Mass loss/mg
 31.46200, 0.00000,-2.597904e-003
 31.46400, 0.05167,-5.033014e-003
 31.52800, 0.10333,-6.914782e-003
 31.84900, 0.15500,-5.626167e-003
 32.25400, 0.20667,-5.246596e-003
 32.62400, 0.25833,-6.706733e-003
 33.00100, 0.31000,-8.360840e-003
 33.42900, 0.36167,-9.892812e-003
 33.90600, 0.41333,-1.161324e-002
 34.40500, 0.46500,-1.311002e-002
 34.93300, 0.51667,-1.535429e-002
 35.48800, 0.56833,-1.756927e-002
 36.07100, 0.62000,-2.052214e-002
 36.67500, 0.67167,-2.392576e-002
 37.29700, 0.72333,-2.756719e-002
 37.93200, 0.77500,-3.138612e-002
 38.57600, 0.82667,-3.522172e-002
 39.23000, 0.87833,-3.888234e-002
 39.88900, 0.93000,-4.300289e-002
 40.54600, 0.98167,-4.708974e-002
 41.20900, 1.03333,-5.107994e-002
 41.86100, 1.08500,-5.546687e-002
 42.51000, 1.13667,-5.987272e-002
 43.15300, 1.18833,-6.546133e-002
 43.78400, 1.24000,-7.088345e-002
 44.40900, 1.29167,-7.700336e-002
 45.02000, 1.34333,-8.246938e-002
 45.62200, 1.39500,-8.832326e-002
 46.21400, 1.44667,-9.485178e-002
 46.79300, 1.49833,      -0.10121
 47.36200, 1.55000,      -0.10804
 47.92100, 1.60167,      -0.11468
 48.47000, 1.65333,      -0.12151
 49.01200, 1.70500,      -0.12798
 49.54600, 1.75667,      -0.13524
 50.06900, 1.80833,      -0.14271
 50.58700, 1.86000,      -0.15050
 51.10100, 1.91167,      -0.15852
 51.60700, 1.96333,      -0.16641
 52.10800, 2.01500,      -0.17477
 52.60800, 2.06667,      -0.18263
 53.10500, 2.11833,      -0.19137
 53.60100, 2.17000,      -0.19987
 54.09400, 2.22167,      -0.20885
 54.59000, 2.27333,      -0.21780
 55.08800, 2.32500,      -0.22645
 55.58300, 2.37667,      -0.23598
 56.08500, 2.42833,      -0.24506
 56.58200, 2.48000,      -0.25477
 57.08200, 2.53167,      -0.26392
 57.58200, 2.58333,      -0.27435
 58.08200, 2.63500,      -0.28400
 58.58700, 2.68667,      -0.29449
 59.09000, 2.73833,      -0.30502
 59.59400, 2.79000,      -0.31487
 60.10400, 2.84167,      -0.32635
 60.61500, 2.89333,      -0.33681
 61.12500, 2.94500,      -0.34776
 61.63800, 2.99667,      -0.35812
 62.15700, 3.04833,      -0.36920
 62.67200, 3.10000,      -0.37994
 63.18600, 3.15167,      -0.39147
 63.70400, 3.20333,      -0.40262
 64.22300, 3.25500,      -0.41487
 64.74200, 3.30667,      -0.42688
 65.26400, 3.35833,      -0.43874
 65.78400, 3.41000,      -0.45116
 66.30800, 3.46167,      -0.46251
 66.83100, 3.51333,      -0.47453
 67.35300, 3.56500,      -0.48597
 67.87900, 3.61667,      -0.49808
 68.40200, 3.66833,      -0.50961
 68.92500, 3.72000,      -0.52233
 69.44700, 3.77167,      -0.53542
 69.97300, 3.82333,      -0.54745
 70.49400, 3.87500,      -0.56054
 71.01500, 3.92667,      -0.57244
 71.53700, 3.97833,      -0.58555
 72.05800, 4.03000,      -0.59745
 72.57900, 4.08167,      -0.61006
 73.09800, 4.13333,      -0.62255
 73.61600, 4.18500,      -0.63405
 74.13900, 4.23667,      -0.64655
 74.65400, 4.28833,      -0.65795
 75.17800, 4.34000,      -0.66997
 75.69700, 4.39167,      -0.68147
 76.21400, 4.44333,      -0.69336
 76.73500, 4.49500,      -0.70457
 77.25500, 4.54667,      -0.71648
 77.77200, 4.59833,      -0.72736
 78.29100, 4.65000,      -0.73916
 78.80800, 4.70167,      -0.75116
 79.32600, 4.75333,      -0.76265
 79.84200, 4.80500,      -0.77464
 80.35800, 4.85667,      -0.78583
 80.87500, 4.90833,      -0.79752
 81.39400, 4.96000,      -0.80793
 81.91100, 5.01167,      -0.81914
 82.42700, 5.06333,      -0.82994
 82.94300, 5.11500,      -0.84002
 83.46000, 5.16667,      -0.85082
 83.97600, 5.21833,      -0.86031
 84.49500, 5.27000,      -0.87062
 85.00900, 5.32167,      -0.88041
 85.52800, 5.37333,      -0.89131
 86.04700, 5.42500,      -0.90161
 86.56300, 5.47667,      -0.91131
 87.08100, 5.52833,      -0.91981
 87.60000, 5.58000,      -0.92851
 88.12100, 5.63167,      -0.93731
 88.63900, 5.68333,      -0.94591
 89.15900, 5.73500,      -0.95539
 89.67900, 5.78667,      -0.96430
 90.19800, 5.83833,      -0.97310
 90.71800, 5.89000,      -0.98139
 91.23300, 5.94167,      -0.99026
 91.75300, 5.99333,      -0.99847
 92.26800, 6.04500,      -1.00704
 92.78900, 6.09667,      -1.01494
 93.30600, 6.14833,      -1.02232
 93.82300, 6.20000,      -1.02992
 94.34200, 6.25167,      -1.03672
 94.85800, 6.30333,      -1.04400
 95.37400, 6.35500,      -1.05078
 95.89000, 6.40667,      -1.05787
 96.40400, 6.45833,      -1.06446
 96.92300, 6.51000,      -1.07165
 97.43400, 6.56167,      -1.07822
 97.95400, 6.61333,      -1.08432
 98.47300, 6.66500,      -1.09114
 98.99000, 6.71667,      -1.09694
 99.50800, 6.76833,      -1.10293
100.028, 6.82000,      -1.10892
100.539, 6.87167,      -1.11581
101.054, 6.92333,      -1.12192
101.569, 6.97500,      -1.12734
102.088, 7.02667,      -1.13276
102.601, 7.07833,      -1.13816
103.117, 7.13000,      -1.14368
103.636, 7.18167,      -1.14899
104.154, 7.23333,      -1.15401
104.67, 7.28500,      -1.15891
105.186, 7.33667,      -1.16381
105.703, 7.38833,      -1.16881
106.22, 7.44000,      -1.17331
106.734, 7.49167,      -1.17791
107.251, 7.54333,      -1.18221
107.766, 7.59500,      -1.18601
108.284, 7.64667,      -1.18971
108.798, 7.69833,      -1.19370
109.312, 7.75000,      -1.19728
109.83, 7.80167,      -1.20148
110.342, 7.85333,      -1.20536
110.86, 7.90500,      -1.20916
111.373, 7.95667,      -1.21295
111.891, 8.00833,      -1.21645
112.406, 8.06000,      -1.22014
112.924, 8.11167,      -1.22322
113.441, 8.16333,      -1.22661
113.954, 8.21500,      -1.22928
114.474, 8.26667,      -1.23228
114.988, 8.31833,      -1.23536
115.506, 8.37000,      -1.23825
116.021, 8.42167,      -1.24122
116.542, 8.47333,      -1.24382
117.055, 8.52500,      -1.24678
117.572, 8.57667,      -1.24955
118.09, 8.62833,      -1.25173
118.603, 8.68000,      -1.25420
119.121, 8.73167,      -1.25668
119.637, 8.78333,      -1.25935
120.152, 8.83500,      -1.26152
120.669, 8.88667,      -1.26359
121.188, 8.93833,      -1.26547
121.699, 8.99000,      -1.26733
122.217, 9.04167,      -1.26889
122.732, 9.09333,      -1.27146
123.247, 9.14500,      -1.27392
123.765, 9.19667,      -1.27629
124.281, 9.24833,      -1.27906
124.794, 9.30000,      -1.28201
125.312, 9.35167,      -1.28518
125.827, 9.40333,      -1.28774
126.345, 9.45500,      -1.29000
126.859, 9.50667,      -1.29136
127.377, 9.55833,      -1.29253
127.894, 9.61000,      -1.29379
128.411, 9.66167,      -1.29504
128.927, 9.71333,      -1.29640
129.447, 9.76500,      -1.29817
129.96, 9.81667,      -1.30091
130.474, 9.86833,      -1.30376
130.992, 9.92000,      -1.30661
131.508, 9.97167,      -1.30867
132.024,10.02333,      -1.31072
132.54,10.07500,      -1.31257
133.06,10.12667,      -1.31484
133.574,10.17833,      -1.31677
134.095,10.23000,      -1.31853
134.608,10.28167,      -1.32097
135.126,10.33333,      -1.32282
135.643,10.38500,      -1.32458
136.163,10.43667,      -1.32562
136.681,10.48833,      -1.32608
137.199,10.54000,      -1.32692
137.718,10.59167,      -1.32837
138.234,10.64333,      -1.33030
138.751,10.69500,      -1.33244
139.269,10.74667,      -1.33518
139.788,10.79833,      -1.33733
140.305,10.85000,      -1.33937
140.82,10.90167,      -1.34101
141.337,10.95333,      -1.34275
141.852,11.00500,      -1.34468
142.364,11.05667,      -1.34691
142.883,11.10833,      -1.34896
143.399,11.16000,      -1.35080
143.916,11.21167,      -1.35243
144.432,11.26333,      -1.35387
144.95,11.31500,      -1.35581
145.464,11.36667,      -1.35805
145.983,11.41833,      -1.36098
146.499,11.47000,      -1.36292
147.016,11.52167,      -1.36506
147.532,11.57333,      -1.36689
148.052,11.62500,      -1.36793
148.565,11.67667,      -1.36906
149.082,11.72833,      -1.36979
149.6,11.78000,      -1.37113
150.119,11.83167,      -1.37296
150.634,11.88333,      -1.37589
151.15,11.93500,      -1.37852
151.671,11.98667,      -1.38066
152.187,12.03833,      -1.38179
152.705,12.09000,      -1.38262
153.226,12.14167,      -1.38406
153.741,12.19333,      -1.38588
154.256,12.24500,      -1.38901
154.773,12.29667,      -1.39193
155.286,12.34833,      -1.39495
155.801,12.40000,      -1.39738
156.319,12.45167,      -1.39972
156.833,12.50333,      -1.40195
157.354,12.55500,      -1.40268
157.87,12.60667,      -1.40281
158.391,12.65833,      -1.40285
158.91,12.71000,      -1.40368
159.427,12.76167,      -1.40510
159.943,12.81333,      -1.40753
160.459,12.86500,      -1.41005
160.977,12.91667,      -1.41258
161.494,12.96833,      -1.41480
162.01,13.02000,      -1.41673
162.527,13.07167,      -1.41915
163.042,13.12333,      -1.42158
163.555,13.17500,      -1.42430
164.071,13.22667,      -1.42642
164.59,13.27833,      -1.42816
165.1,13.33000,      -1.43077
165.616,13.38167,      -1.43381
166.134,13.43333,      -1.43593
166.649,13.48500,      -1.43766
167.165,13.53667,      -1.43899
167.685,13.58833,      -1.44012
168.2,13.64000,      -1.44135
168.717,13.69167,      -1.44307
169.232,13.74333,      -1.44679
169.748,13.79500,      -1.45062
170.263,13.84667,      -1.45334
170.778,13.89833,      -1.45597
171.299,13.95000,      -1.45900
171.814,14.00167,      -1.46253
172.331,14.05333,      -1.46495
172.847,14.10500,      -1.46738
173.361,14.15667,      -1.46930
173.882,14.20833,      -1.47204
174.396,14.26000,      -1.47466
174.912,14.31167,      -1.47769
175.43,14.36333,      -1.48061
175.945,14.41500,      -1.48354
176.461,14.46667,      -1.48676
176.978,14.51833,      -1.48969
177.494,14.57000,      -1.49272
178.009,14.62167,      -1.49565
178.525,14.67333,      -1.49908
179.04,14.72500,      -1.50251
179.557,14.77667,      -1.50593
180.075,14.82833,      -1.50877
180.591,14.88000,      -1.51170
181.113,14.93167,      -1.51483
181.629,14.98333,      -1.51766
182.144,15.03500,      -1.52049
182.664,15.08667,      -1.52342
183.184,15.13833,      -1.52675
183.701,15.19000,      -1.52978
184.221,15.24167,      -1.53312
184.739,15.29333,      -1.53684
185.259,15.34500,      -1.54008
185.777,15.39667,      -1.54391
186.293,15.44833,      -1.54694
186.809,15.50000,      -1.55047
187.328,15.55167,      -1.55431
187.842,15.60333,      -1.55863
188.359,15.65500,      -1.56236
188.876,15.70667,      -1.56630
189.391,15.75833,      -1.56993
189.906,15.81000,      -1.57316
190.42,15.86167,      -1.57760
190.938,15.91333,      -1.58183
191.45,15.96500,      -1.58577
191.968,16.01667,      -1.58921
192.483,16.06833,      -1.59274
193.002,16.12000,      -1.59649
193.521,16.17167,      -1.60053
194.037,16.22333,      -1.60437
194.554,16.27500,      -1.60831
195.067,16.32667,      -1.61254
195.583,16.37833,      -1.61668
196.1,16.43000,      -1.62092
196.617,16.48167,      -1.62487
197.132,16.53333,      -1.62931
197.65,16.58500,      -1.63395
198.166,16.63667,      -1.63900
198.687,16.68833,      -1.64384
199.2,16.74000,      -1.64808
199.716,16.79167,      -1.65323
200.237,16.84333,      -1.65777
200.752,16.89500,      -1.66262
201.268,16.94667,      -1.66726
201.787,16.99833,      -1.67211
202.304,17.05000,      -1.67696
202.819,17.10167,      -1.68210
203.341,17.15333,      -1.68795
203.854,17.20500,      -1.69350
204.369,17.25667,      -1.69974
204.886,17.30833,      -1.70539
205.406,17.36000,      -1.71114
205.922,17.41167,      -1.71619
206.438,17.46333,      -1.72133
206.957,17.51500,      -1.72658
207.474,17.56667,      -1.73303
207.989,17.61833,      -1.73998
208.507,17.67000,      -1.74692
209.022,17.72167,      -1.75427
209.538,17.77333,      -1.76122
210.055,17.82500,      -1.76817
210.574,17.87667,      -1.77432
211.089,17.92833,      -1.78137
211.607,17.98000,      -1.78772
212.124,18.03167,      -1.79467
212.644,18.08333,      -1.80241
213.159,18.13500,      -1.81056
213.672,18.18667,      -1.82011
214.191,18.23833,      -1.82846
214.705,18.29000,      -1.83690
215.222,18.34167,      -1.84485
215.737,18.39333,      -1.85311
216.258,18.44500,      -1.86086
216.774,18.49667,      -1.86831
217.292,18.54833,      -1.87646
217.81,18.60000,      -1.88501
218.325,18.65167,      -1.89536
218.842,18.70333,      -1.90551
219.36,18.75500,      -1.91596
219.875,18.80667,      -1.92551
220.391,18.85833,      -1.93535
220.906,18.91000,      -1.94530
221.422,18.96167,      -1.95666
221.938,19.01333,      -1.96781
222.454,19.06500,      -1.97856
222.973,19.11667,      -1.98921
223.489,19.16833,      -1.99966
224.006,19.22000,      -2.01141
224.523,19.27167,      -2.02226
225.038,19.32333,      -2.03401
225.557,19.37500,      -2.04477
226.071,19.42667,      -2.05621
226.591,19.47833,      -2.06787
227.107,19.53000,      -2.07872
227.625,19.58167,      -2.09107
228.14,19.63333,      -2.10272
228.655,19.68500,      -2.11617
229.173,19.73667,      -2.14012
229.685,19.78833,      -2.15437
230.201,19.84000,      -2.16382
230.717,19.89167,      -2.17478
231.235,19.94333,      -2.18583
231.754,19.99500,      -2.19728
232.268,20.04667,      -2.22273
232.786,20.09833,      -2.23179
233.301,20.15000,      -2.24344
233.817,20.20167,      -2.25509
234.333,20.25333,      -2.27954
234.852,20.30500,      -2.28740
235.371,20.35667,      -2.29885
235.886,20.40833,      -2.31200
236.403,20.46000,      -2.33375
236.921,20.51167,      -2.34510
237.433,20.56333,      -2.35675
237.949,20.61500,      -2.37180
238.465,20.66667,      -2.39306
238.981,20.71833,      -2.40451
239.501,20.77000,      -2.42466
240.018,20.82167,      -2.44052
240.531,20.87333,      -2.45547
241.052,20.92500,      -2.47552
241.563,20.97667,      -2.48727
242.081,21.02833,      -2.49942
242.598,21.08000,      -2.52718
243.116,21.13167,      -2.54433
243.634,21.18333,      -2.56248
244.148,21.23500,      -2.57873
244.665,21.28667,      -2.59708
245.184,21.33833,      -2.61594
245.698,21.39000,      -2.63399
246.214,21.44167,      -2.65354
246.728,21.49333,      -2.67189
247.243,21.54500,      -2.69144
247.759,21.59667,      -2.70990
248.278,21.64833,      -2.72925
248.794,21.70000,      -2.74830
249.311,21.75167,      -2.76895
249.828,21.80333,      -2.78971
250.343,21.85500,      -2.80966
250.861,21.90667,      -2.83091
251.38,21.95833,      -2.85086
251.897,22.01000,      -2.87242
252.415,22.06167,      -2.89277
252.934,22.11333,      -2.91512
253.45,22.16500,      -2.93667
253.965,22.21667,      -2.96002
254.485,22.26833,      -2.98407
254.999,22.32000,      -3.00652
255.519,22.37167,      -3.02998
256.035,22.42333,      -3.05243
256.551,22.47500,      -3.07598
257.07,22.52667,      -3.09923
257.583,22.57833,      -3.12448
258.102,22.63000,      -3.14863
258.614,22.68167,      -3.17478
259.13,22.73333,      -3.20074
259.644,22.78500,      -3.22499
260.163,22.83667,      -3.25054
260.678,22.88833,      -3.27559
261.192,22.94000,      -3.30344
261.708,22.99167,      -3.32949
262.226,23.04333,      -3.35784
262.739,23.09500,      -3.38419
263.258,23.14667,      -3.41094
263.773,23.19833,      -3.43879
264.293,23.25000,      -3.46425
264.812,23.30167,      -3.49230
265.33,23.35333,      -3.51875
265.847,23.40500,      -3.54900
266.362,23.45667,      -3.57715
266.879,23.50833,      -3.60810
267.395,23.56000,      -3.63725
267.914,23.61167,      -3.66750
268.43,23.66333,      -3.69775
268.947,23.71500,      -3.72690
269.464,23.76667,      -3.75885
269.982,23.81833,      -3.78900
270.5,23.87000,      -3.82204
271.015,23.92167,      -3.85289
271.532,23.97333,      -3.88544
272.047,24.02500,      -3.91509
272.562,24.07667,      -3.94834
273.078,24.12833,      -3.98229
273.593,24.18000,      -4.01334
274.108,24.23167,      -4.04689
274.629,24.28333,      -4.07864
275.143,24.33500,      -4.11258
275.66,24.38667,      -4.14503
276.175,24.43833,      -4.18148
276.69,24.49000,      -4.21393
277.206,24.54167,      -4.24878
277.723,24.59333,      -4.28422
278.248,24.64500,      -4.31827
278.799,24.69667,      -4.35442
279.313,24.74833,      -4.38867
279.825,24.80000,      -4.42451
280.334,24.85167,      -4.45866
280.845,24.90333,      -4.49491
281.353,24.95500,      -4.52945
281.861,25.00667,      -4.56700
282.372,25.05833,      -4.60475
282.882,25.11000,      -4.64019
283.397,25.16167,      -4.67724
283.914,25.21333,      -4.71229
284.431,25.26500,      -4.74933
284.948,25.31667,      -4.78478
285.464,25.36833,      -4.82262
285.981,25.42000,      -4.85857
286.497,25.47167,      -4.89702
287.015,25.52333,      -4.93556
287.527,25.57500,      -4.97101
288.044,25.62667,      -5.00995
288.561,25.67833,      -5.04659
289.077,25.73000,      -5.08514
289.594,25.78167,      -5.12178
290.108,25.83333,      -5.16003
290.627,25.88500,      -5.19967
291.145,25.93667,      -5.23651
291.661,25.98833,      -5.27586
292.175,26.04000,      -5.31170
292.692,26.09167,      -5.34944
293.21,26.14333,      -5.38529
293.728,26.19500,      -5.42453
294.246,26.24667,      -5.46027
294.762,26.29833,      -5.49861
295.278,26.35000,      -5.53556
295.795,26.40167,      -5.57440
296.312,26.45333,      -5.61304
296.828,26.50500,      -5.64928
297.345,26.55667,      -5.68692
297.862,26.60833,      -5.72266
298.379,26.66000,      -5.76160
298.892,26.71167,      -5.79674
299.409,26.76333,      -5.83348
299.924,26.81500,      -5.86762
300.443,26.86667,      -5.90336
300.959,26.91833,      -5.94030
301.481,26.97000,      -5.97484
301.994,27.02167,      -6.01138
302.511,27.07333,      -6.04632
303.027,27.12500,      -6.08376
303.543,27.17667,      -6.11790
304.064,27.22833,      -6.15394
304.577,27.28000,      -6.18848
305.095,27.33167,      -6.22432
305.61,27.38333,      -6.26027
306.126,27.43500,      -6.29271
306.643,27.48667,      -6.32735
307.162,27.53833,      -6.36009
307.675,27.59000,      -6.39503
308.195,27.64167,      -6.42797
308.707,27.69333,      -6.46391
309.226,27.74500,      -6.49755
309.74,27.79667,      -6.53179
310.261,27.84833,      -6.56713
310.777,27.90000,      -6.59977
311.293,27.95167,      -6.63481
311.812,28.00333,      -6.66855
312.33,28.05500,      -6.70499
312.845,28.10667,      -6.73833
313.362,28.15833,      -6.77497
313.879,28.21000,      -6.80841
314.395,28.26167,      -6.84545
314.912,28.31333,      -6.87939
315.432,28.36500,      -6.91203
315.948,28.41667,      -6.94957
316.466,28.46833,      -6.98541
316.982,28.52000,      -7.02185
317.512,28.57167,      -7.05558
318.029,28.62333,      -7.09242
318.541,28.67500,      -7.12867
319.054,28.72667,      -7.16541
319.567,28.77833,      -7.20165
320.081,28.83000,      -7.23599
320.592,28.88167,      -7.27393
321.103,28.93333,      -7.30807
321.621,28.98500,      -7.34631
322.132,29.03667,      -7.38105
322.647,29.08833,      -7.41739
323.16,29.14000,      -7.45313
323.675,29.19167,      -7.48967
324.193,29.24333,      -7.52311
324.713,29.29500,      -7.55475
325.234,29.34667,      -7.59088
325.753,29.39833,      -7.62402
326.269,29.45000,      -7.65886
326.784,29.50167,      -7.69290
327.303,29.55333,      -7.72824
327.818,29.60500,      -7.76068
328.333,29.65667,      -7.79662
328.851,29.70833,      -7.83126
329.365,29.76000,      -7.86320
329.878,29.81167,      -7.89784
330.395,29.86333,      -7.92798
330.913,29.91500,      -7.96182
331.427,29.96667,      -7.99316
331.946,30.01833,      -8.02420
332.463,30.07000,      -8.05304
332.976,30.12167,      -8.08358
333.493,30.17333,      -8.11371
334.011,30.22500,      -8.14135
334.527,30.27667,      -8.16979
335.042,30.32833,      -8.19783
335.56,30.38000,      -8.22747
336.074,30.43167,      -8.25571
336.589,30.48333,      -8.28465
337.104,30.53500,      -8.31059
337.619,30.58667,      -8.33722
338.137,30.63833,      -8.36366
338.655,30.69000,      -8.38800
339.169,30.74167,      -8.41434
339.687,30.79333,      -8.43748
340.203,30.84500,      -8.46091
340.722,30.89667,      -8.48285
341.237,30.94833,      -8.50619
341.754,31.00000,      -8.52693
342.271,31.05167,      -8.54996
342.79,31.10333,      -8.57060
343.307,31.15500,      -8.59054
343.825,31.20667,      -8.61138
344.339,31.25833,      -8.63071
344.856,31.31000,      -8.65135
345.372,31.36167,      -8.67019
345.889,31.41333,      -8.69013
346.404,31.46500,      -8.70866
346.919,31.51667,      -8.72630
347.437,31.56833,      -8.73784
347.954,31.62000,      -8.74897
348.472,31.67167,      -8.76131
348.988,31.72333,      -8.77774
349.506,31.77500,      -8.79948
350.021,31.82667,      -8.81002
350.535,31.87833,      -8.83286
351.052,31.93000,      -8.84249
351.564,31.98167,      -8.85423
352.082,32.03333,      -8.86646
352.598,32.08500,      -8.87870
353.113,32.13667,      -8.90154
353.628,32.18833,      -8.91057
354.144,32.24000,      -8.92061
354.662,32.29167,      -8.93014
355.179,32.34333,      -8.94198
355.696,32.39500,      -8.95321
356.212,32.44667,      -8.96525
356.727,32.49833,      -8.97718
357.244,32.55000,      -8.98822
357.76,32.60167,      -9.00005
358.28,32.65333,      -9.01058
358.796,32.70500,      -9.02162
359.314,32.75667,      -9.03205
359.832,32.80833,      -9.04279
360.353,32.86000,      -9.05332
360.869,32.91167,      -9.06415
361.388,32.96333,      -9.07479
361.904,33.01500,      -9.08502
362.419,33.06667,      -9.09506
362.938,33.11833,      -9.10439
363.451,33.17000,      -9.11352
363.968,33.22167,      -9.12236
364.482,33.27333,      -9.13219
364.996,33.32500,      -9.14132
365.513,33.37667,      -9.15116
366.032,33.42833,      -9.15989
366.548,33.48000,      -9.16832
367.064,33.53167,      -9.17745
367.581,33.58333,      -9.18668
368.097,33.63500,      -9.19642
368.612,33.68667,      -9.20515
369.126,33.73833,      -9.21458
369.642,33.79000,      -9.22322
370.157,33.84167,      -9.23235
370.672,33.89333,      -9.24178
371.187,33.94500,      -9.25031
371.702,33.99667,      -9.25944
372.22,34.04833,      -9.26807
372.738,34.10000,      -9.27680
373.258,34.15167,      -9.28503
373.774,34.20333,      -9.29356
374.294,34.25500,      -9.30159
374.811,34.30667,      -9.30952
375.327,34.35833,      -9.31765
375.843,34.41000,      -9.32558
376.358,34.46167,      -9.33471
376.87,34.51333,      -9.34414
377.384,34.56500,      -9.35397
377.9,34.61667,      -9.36160
378.418,34.66833,      -9.36903
378.935,34.72000,      -9.37596
379.45,34.77167,      -9.38408
379.971,34.82333,      -9.39281
380.485,34.87500,      -9.40144
381.002,34.92667,      -9.41087
381.515,34.97833,      -9.41990
382.029,35.03000,      -9.42983
382.547,35.08167,      -9.43765
383.062,35.13333,      -9.44508
383.584,35.18500,      -9.45210
384.1,35.23667,      -9.45893
384.618,35.28833,      -9.46616
385.136,35.34000,      -9.47278
385.654,35.39167,      -9.48071
386.169,35.44333,      -9.48884
386.682,35.49500,      -9.49776
387.199,35.54667,      -9.50619
387.71,35.59833,      -9.51442
388.225,35.65000,      -9.52204
388.743,35.70167,      -9.52957
389.259,35.75333,      -9.53699
389.778,35.80500,      -9.54411
390.295,35.85667,      -9.55164
390.811,35.90833,      -9.55896
391.326,35.96000,      -9.56709
391.836,36.01167,      -9.57492
392.357,36.06333,      -9.58344
392.874,36.11500,      -9.59126
393.387,36.16667,      -9.59929
393.904,36.21833,      -9.60661
394.421,36.27000,      -9.61373
394.939,36.32167,      -9.62115
395.456,36.37333,      -9.62807
395.971,36.42500,      -9.63580
396.489,36.47667,      -9.64272
397.007,36.52833,      -9.65064
397.524,36.58000,      -9.65796
398.037,36.63167,      -9.66538
398.556,36.68333,      -9.67260
399.074,36.73500,      -9.67903
399.588,36.78667,      -9.68645
400.104,36.83833,      -9.69377
400.621,36.89000,      -9.70159
401.133,36.94167,      -9.70901
401.648,36.99333,      -9.71603
402.167,37.04500,      -9.72305
402.683,37.09667,      -9.73067
403.197,37.14833,      -9.73859
403.715,37.20000,      -9.74611
404.233,37.25167,      -9.75343
404.745,37.30333,      -9.76045
405.262,37.35500,      -9.76807
405.776,37.40667,      -9.77539
406.29,37.45833,      -9.78241
406.808,37.51000,      -9.78913
407.326,37.56167,      -9.79614
407.842,37.61333,      -9.80266
408.359,37.66500,      -9.80938
408.877,37.71667,      -9.81670
409.394,37.76833,      -9.82322
409.909,37.82000,      -9.83023
410.426,37.87167,      -9.83695
410.943,37.92333,      -9.84467
411.46,37.97500,      -9.85229
411.975,38.02667,      -9.85951
412.49,38.07833,      -9.86662
413.005,38.13000,      -9.87284
413.523,38.18167,      -9.87906
414.04,38.23333,      -9.88537
414.556,38.28500,      -9.89259
415.073,38.33667,      -9.89941
415.592,38.38833,      -9.90642
416.106,38.44000,      -9.91304
416.621,38.49167,      -9.91976
417.139,38.54333,      -9.92647
417.657,38.59500,      -9.93259
418.175,38.64667,      -9.93900
418.694,38.69833,      -9.94562
419.206,38.75000,      -9.95204
419.719,38.80167,      -9.95816
420.237,38.85333,      -9.96497
420.752,38.90500,      -9.97149
421.271,38.95667,      -9.97820
421.786,39.00833,      -9.98492
422.304,39.06000,      -9.99123
422.818,39.11167,      -9.99815
423.337,39.16333,     -10.00446
423.852,39.21500,     -10.01108
424.369,39.26667,     -10.01739
424.885,39.31833,     -10.02411
425.403,39.37000,     -10.03012
425.919,39.42167,     -10.03623
426.435,39.47333,     -10.04295
426.948,39.52500,     -10.04936
427.463,39.57667,     -10.05648
427.978,39.62833,     -10.06269
428.491,39.68000,     -10.06861
429.006,39.73167,     -10.07472
429.526,39.78333,     -10.08143
430.042,39.83500,     -10.08775
430.557,39.88667,     -10.09426
431.073,39.93833,     -10.10087
431.589,39.99000,     -10.10708
432.104,40.04167,     -10.11370
432.62,40.09333,     -10.12001
433.137,40.14500,     -10.12632
433.652,40.19667,     -10.13194
434.172,40.24833,     -10.13755
434.689,40.30000,     -10.14226
435.208,40.35167,     -10.14747
435.723,40.40333,     -10.15308
436.243,40.45500,     -10.15939
436.76,40.50667,     -10.16710
437.274,40.55833,     -10.17402
437.788,40.61000,     -10.18123
438.302,40.66167,     -10.18744
438.821,40.71333,     -10.19375
439.332,40.76500,     -10.19967
439.848,40.81667,     -10.20608
440.365,40.86833,     -10.21209
440.882,40.92000,     -10.21769
441.403,40.97167,     -10.22410
441.918,41.02333,     -10.23051
442.436,41.07500,     -10.23682
442.951,41.12667,     -10.24264
443.47,41.17833,     -10.24844
443.987,41.23000,     -10.25416
444.503,41.28167,     -10.25997
445.018,41.33333,     -10.26638
445.536,41.38500,     -10.27238
446.052,41.43667,     -10.27899
446.569,41.48833,     -10.28500
447.081,41.54000,     -10.29132
447.597,41.59167,     -10.29703
448.111,41.64333,     -10.30364
448.628,41.69500,     -10.30984
449.142,41.74667,     -10.31655
449.658,41.79833,     -10.32306
450.174,41.85000,     -10.32897
450.694,41.90167,     -10.33517
451.21,41.95333,     -10.34078
451.732,42.00500,     -10.34669
452.245,42.05667,     -10.35250
452.764,42.10833,     -10.35951
453.277,42.16000,     -10.36532
453.795,42.21167,     -10.37182
454.311,42.26333,     -10.37833
454.825,42.31500,     -10.38414
455.342,42.36667,     -10.39085
455.856,42.41833,     -10.39736
456.373,42.47000,     -10.40396
456.889,42.52167,     -10.40987
457.406,42.57333,     -10.41657
457.922,42.62500,     -10.42288
458.439,42.67667,     -10.42939
458.955,42.72833,     -10.43579
459.472,42.78000,     -10.44220
459.989,42.83167,     -10.44851
460.507,42.88333,     -10.45501
461.024,42.93500,     -10.46151
461.543,42.98667,     -10.46742
462.059,43.03833,     -10.47363
462.575,43.09000,     -10.47933
463.09,43.14167,     -10.48574
463.605,43.19333,     -10.49195
464.119,43.24500,     -10.49805
464.638,43.29667,     -10.50485
465.151,43.34833,     -10.51106
465.668,43.40000,     -10.51817
466.185,43.45167,     -10.52517
466.699,43.50333,     -10.53308
467.215,43.55500,     -10.54018
467.732,43.60667,     -10.54709
468.247,43.65833,     -10.55359
468.76,43.71000,     -10.55970
469.279,43.76167,     -10.56700
469.794,43.81333,     -10.57380
470.312,43.86500,     -10.58040
470.83,43.91667,     -10.58631
471.35,43.96833,     -10.59261
471.864,44.02000,     -10.59851
472.381,44.07167,     -10.60432
472.898,44.12333,     -10.60992
473.414,44.17500,     -10.61612
473.93,44.22667,     -10.62193
474.448,44.27833,     -10.62753
474.965,44.33000,     -10.63323
475.482,44.38167,     -10.63833
475.994,44.43333,     -10.64474
476.512,44.48500,     -10.65154
477.025,44.53667,     -10.65785
477.538,44.58833,     -10.66405
478.054,44.64000,     -10.66875
478.572,44.69167,     -10.67315
479.087,44.74333,     -10.67715
479.605,44.79500,     -10.68165
480.123,44.84667,     -10.68605
480.637,44.89833,     -10.69065
481.152,44.95000,     -10.69526
481.669,45.00167,     -10.70016
482.185,45.05333,     -10.70506
482.702,45.10500,     -10.70876
483.219,45.15667,     -10.71246
483.733,45.20833,     -10.71686
484.251,45.26000,     -10.72106
484.769,45.31167,     -10.72466
485.287,45.36333,     -10.72886
485.8,45.41500,     -10.73316
486.32,45.46667,     -10.73766
486.83,45.51833,     -10.74266
487.347,45.57000,     -10.74736
487.861,45.62167,     -10.75136
488.378,45.67333,     -10.75486
488.893,45.72500,     -10.75766
489.413,45.77667,     -10.76126
489.927,45.82833,     -10.76516
490.443,45.88000,     -10.76946
490.956,45.93167,     -10.77536
491.472,45.98333,     -10.78066
491.987,46.03500,     -10.78496
492.501,46.08667,     -10.78856
493.021,46.13833,     -10.79205
493.539,46.19000,     -10.79575
494.056,46.24167,     -10.79885
494.575,46.29333,     -10.80244
495.096,46.34500,     -10.80533
495.615,46.39667,     -10.80843
496.132,46.44833,     -10.81143
496.65,46.50000,     -10.81433
497.168,46.55167,     -10.81773
497.683,46.60333,     -10.82143
498.196,46.65500,     -10.82573
498.708,46.70667,     -10.82973
499.225,46.75833,     -10.83352
499.737,46.81000,     -10.83702
500.254,46.86167,     -10.84052
500.772,46.91333,     -10.84421
501.284,46.96500,     -10.84761
501.803,47.01667,     -10.85100
502.322,47.06833,     -10.85410
502.837,47.12000,     -10.85750
503.354,47.17167,     -10.86069
503.869,47.22333,     -10.86479
504.385,47.27500,     -10.86869
504.896,47.32667,     -10.87259
505.415,47.37833,     -10.87638
505.928,47.43000,     -10.88048
506.441,47.48167,     -10.88558
506.958,47.53333,     -10.88927
507.475,47.58500,     -10.89136
507.995,47.63667,     -10.89235
508.518,47.68833,     -10.89414
509.037,47.74000,     -10.89664
509.553,47.79167,     -10.90014
510.069,47.84333,     -10.90444
510.58,47.89500,     -10.90854
511.091,47.94667,     -10.91294
511.61,47.99833,     -10.91653
512.123,48.05000,     -10.91992
512.638,48.10167,     -10.92252
513.156,48.15333,     -10.92491
513.676,48.20500,     -10.92740
514.193,48.25667,     -10.93059
514.708,48.30833,     -10.93409
515.225,48.36000,     -10.93799
515.74,48.41167,     -10.94188
516.254,48.46333,     -10.94528
516.771,48.51500,     -10.94917
517.283,48.56667,     -10.95287
517.804,48.61833,     -10.95596
518.322,48.67000,     -10.95835
518.84,48.72167,     -10.96064
519.358,48.77333,     -10.96363
519.875,48.82500,     -10.96663
520.392,48.87667,     -10.96982
520.907,48.92833,     -10.97292
521.42,48.98000,     -10.97731
521.934,49.03167,     -10.98201
522.447,49.08333,     -10.98560
522.969,49.13500,     -10.98719
523.488,49.18667,     -10.98818
524.006,49.23833,     -10.99017
524.52,49.29000,     -10.99367
525.036,49.34167,     -10.99756
525.551,49.39333,     -11.00096
526.066,49.44500,     -11.00525
526.582,49.49667,     -11.00924
527.097,49.54833,     -11.01333
527.619,49.60000,     -11.01602
528.134,49.65167,     -11.01841
528.652,49.70333,     -11.02120
529.169,49.75500,     -11.02420
529.688,49.80667,     -11.02648
530.206,49.85833,     -11.02928
530.725,49.91000,     -11.03187
531.241,49.96167,     -11.03456
531.757,50.01333,     -11.03685
532.276,50.06500,     -11.03874
532.791,50.11667,     -11.04124
533.302,50.16833,     -11.04503
533.816,50.22000,     -11.04923
534.332,50.27167,     -11.05342
534.85,50.32333,     -11.05620
535.369,50.37500,     -11.05809
535.886,50.42667,     -11.06078
536.401,50.47833,     -11.06397
536.922,50.53000,     -11.06686
537.437,50.58167,     -11.06995
537.952,50.63333,     -11.07264
538.468,50.68500,     -11.07493
538.984,50.73667,     -11.07752
539.499,50.78833,     -11.08101
540.017,50.84000,     -11.08470
540.53,50.89167,     -11.08699
541.055,50.94333,     -11.08887
541.572,50.99500,     -11.09006
542.09,51.04667,     -11.09245
542.605,51.09833,     -11.09604
543.122,51.15000,     -11.09923
543.638,51.20167,     -11.10242
544.15,51.25333,     -11.10521
544.667,51.30500,     -11.10780
545.186,51.35667,     -11.11019
545.704,51.40833,     -11.11307
546.221,51.46000,     -11.11626
546.737,51.51167,     -11.11965
547.253,51.56333,     -11.12274
547.769,51.61500,     -11.12503
548.285,51.66667,     -11.12742
548.799,51.71833,     -11.13070
549.312,51.77000,     -11.13480
549.829,51.82167,     -11.13858
550.344,51.87333,     -11.14137
550.863,51.92500,     -11.14305
551.381,51.97667,     -11.14434
551.9,52.02833,     -11.14552
552.419,52.08000,     -11.14720
552.938,52.13167,     -11.15029
553.45,52.18333,     -11.15338
553.967,52.23500,     -11.15677
554.487,52.28667,     -11.15995
555.007,52.33833,     -11.16313
555.521,52.39000,     -11.16592
556.035,52.44167,     -11.16911
556.553,52.49333,     -11.17210
557.07,52.54500,     -11.17438
557.588,52.59667,     -11.17676
558.107,52.64833,     -11.17865
558.624,52.70000,     -11.18013
559.139,52.75167,     -11.18152
559.655,52.80333,     -11.18361
560.171,52.85500,     -11.18629
560.685,52.90667,     -11.18978
561.202,52.95833,     -11.19296
561.716,53.01000,     -11.19564
562.229,53.06167,     -11.19853
562.742,53.11333,     -11.20131
563.261,53.16500,     -11.20470
563.778,53.21667,     -11.20718
564.295,53.26833,     -11.20956
564.813,53.32000,     -11.21134
565.336,53.37167,     -11.21262
565.854,53.42333,     -11.21370
566.376,53.47500,     -11.21478
566.89,53.52667,     -11.21627
567.409,53.57833,     -11.21865
567.922,53.63000,     -11.22254
568.438,53.68167,     -11.22682
568.952,53.73333,     -11.23050
569.469,53.78500,     -11.23318
569.985,53.83667,     -11.23546
570.498,53.88833,     -11.23755
571.013,53.94000,     -11.23953
571.532,53.99167,     -11.24091
572.05,54.04333,     -11.24229
572.566,54.09500,     -11.24487
573.079,54.14667,     -11.24795
573.597,54.19833,     -11.25183
574.111,54.25000,     -11.25512
574.632,54.30167,     -11.25759
575.152,54.35333,     -11.25976
575.672,54.40500,     -11.26174
576.19,54.45667,     -11.26362
576.709,54.50833,     -11.26540
577.227,54.56000,     -11.26738
577.742,54.61167,     -11.26997
578.253,54.66333,     -11.27335
578.768,54.71500,     -11.27643
579.281,54.76667,     -11.27901
579.799,54.81833,     -11.28149
580.314,54.87000,     -11.28356
580.828,54.92167,     -11.28575
581.342,54.97333,     -11.28842
581.859,55.02500,     -11.29080
582.376,55.07667,     -11.29218
582.894,55.12833,     -11.29345
583.411,55.18000,     -11.29493
583.926,55.23167,     -11.29721
584.441,55.28333,     -11.30018
584.96,55.33500,     -11.30276
585.476,55.38667,     -11.30494
585.993,55.43833,     -11.30671
586.508,55.49000,     -11.30869
587.024,55.54167,     -11.31097
587.541,55.59333,     -11.31364
588.053,55.64500,     -11.31642
588.57,55.69667,     -11.31960
589.082,55.74833,     -11.32228
589.599,55.80000,     -11.32485
590.115,55.85167,     -11.32692
590.632,55.90333,     -11.32890
591.151,55.95500,     -11.33107
591.668,56.00667,     -11.33314
592.184,56.05833,     -11.33622
592.699,56.11000,     -11.33869
593.215,56.16167,     -11.34127
593.731,56.21333,     -11.34444
594.246,56.26500,     -11.34782
594.759,56.31667,     -11.35069
595.276,56.36833,     -11.35296
595.792,56.42000,     -11.35484
596.311,56.47167,     -11.35621
596.83,56.52333,     -11.35788
597.346,56.57500,     -11.35945
597.863,56.62667,     -11.36212
598.379,56.67833,     -11.36550
598.898,56.73000,     -11.36737
599.412,56.78167,     -11.36974
599.929,56.83333,     -11.37411
600.447,56.88500,     -11.38038
600.962,56.93667,     -11.38156
601.481,56.98833,     -11.38122
602.001,57.04000,     -11.38139
602.52,57.09167,     -11.38216
603.036,57.14333,     -11.38353
603.552,57.19500,     -11.38601
604.067,57.24667,     -11.39008
604.582,57.29833,     -11.39445
605.097,57.35000,     -11.39902
605.613,57.40167,     -11.40209
606.129,57.45333,     -11.40456
606.648,57.50500,     -11.40663
607.167,57.55667,     -11.40829
607.685,57.60833,     -11.41006
608.204,57.66000,     -11.41193
608.72,57.71167,     -11.41470
609.234,57.76333,     -11.41747
609.751,57.81500,     -11.42044
610.265,57.86667,     -11.42341
610.782,57.91833,     -11.42638
611.297,57.97000,     -11.42904
611.809,58.02167,     -11.43111
612.328,58.07333,     -11.43378
612.843,58.12500,     -11.43625
613.357,58.17667,     -11.43892
613.871,58.22833,     -11.44138
614.391,58.28000,     -11.44425
614.905,58.33167,     -11.44681
615.422,58.38333,     -11.44998
615.941,58.43500,     -11.45284
616.458,58.48667,     -11.45621
616.972,58.53833,     -11.45918
617.491,58.59000,     -11.46214
618.004,58.64167,     -11.46521
618.522,58.69333,     -11.46757
619.037,58.74500,     -11.47024
619.554,58.79667,     -11.47281
620.068,58.84833,     -11.47567
620.583,58.90000,     -11.47824
621.101,58.95167,     -11.48120
621.614,59.00333,     -11.48427
622.13,59.05500,     -11.48743
622.648,59.10667,     -11.49049
623.168,59.15833,     -11.49195
623.687,59.21000,     -11.49341
624.204,59.26167,     -11.49508
624.721,59.31333,     -11.49854
625.235,59.36500,     -11.50231
625.75,59.41667,     -11.50578
626.266,59.46833,     -11.50874
626.782,59.52000,     -11.51190
627.295,59.57167,     -11.51577
627.814,59.62333,     -11.51883
628.329,59.67500,     -11.52119
628.848,59.72667,     -11.52315
629.367,59.77833,     -11.52481
629.884,59.83000,     -11.52617
630.403,59.88167,     -11.52853
630.918,59.93333,     -11.53200
631.434,59.98500,     -11.53536
631.947,60.03667,     -11.53912
632.462,60.08833,     -11.54269
632.973,60.14000,     -11.54655
633.49,60.19167,     -11.54971
634.009,60.24333,     -11.55197
634.524,60.29500,     -11.55383
635.042,60.34667,     -11.55469
635.562,60.39833,     -11.55565
636.076,60.45000,     -11.55761
636.594,60.50167,     -11.56087
637.111,60.55333,     -11.56413
637.625,60.60500,     -11.56729
638.14,60.65667,     -11.56965
638.656,60.70833,     -11.57181
639.173,60.76000,     -11.57477
639.69,60.81167,     -11.57803
640.207,60.86333,     -11.58159
640.72,60.91500,     -11.58415
641.238,60.96667,     -11.58631
641.757,61.01833,     -11.58886
642.272,61.07000,     -11.59052
642.788,61.12167,     -11.59188
643.306,61.17333,     -11.59404
643.822,61.22500,     -11.59640
644.338,61.27667,     -11.59926
644.854,61.32833,     -11.60182
645.37,61.38000,     -11.60407
645.886,61.43167,     -11.60603
646.402,61.48333,     -11.60739
646.916,61.53500,     -11.60895
647.432,61.58667,     -11.61061
647.949,61.63833,     -11.61266
648.465,61.69000,     -11.61482
648.982,61.74167,     -11.61718
649.497,61.79333,     -11.61893
650.015,61.84500,     -11.61969
650.532,61.89667,     -11.62095
651.047,61.94833,     -11.62310
651.562,62.00000,     -11.62616
652.079,62.05167,     -11.62852
652.595,62.10333,     -11.62967
653.113,62.15500,     -11.63073
653.63,62.20667,     -11.63138
654.15,62.25833,     -11.63224
654.664,62.31000,     -11.63350
655.178,62.36167,     -11.63615
655.696,62.41333,     -11.63931
656.211,62.46500,     -11.64216
656.729,62.51667,     -11.64422
657.243,62.56833,     -11.64528
657.759,62.62000,     -11.64593
658.277,62.67167,     -11.64688
658.794,62.72333,     -11.64784
659.308,62.77500,     -11.64859
659.825,62.82667,     -11.64965
660.34,62.87833,     -11.65090
660.858,62.93000,     -11.65186
661.376,62.98167,     -11.65291
661.89,63.03333,     -11.65427
662.405,63.08500,     -11.65582
662.918,63.13667,     -11.65918
663.435,63.18833,     -11.66303
663.95,63.24000,     -11.66479
664.462,63.29167,     -11.66624
664.98,63.34333,     -11.66819
665.498,63.39500,     -11.67004
666.016,63.44667,     -11.67070
666.534,63.49833,     -11.67165
667.051,63.55000,     -11.67300
667.569,63.60167,     -11.67385
668.084,63.65333,     -11.67461
668.604,63.70500,     -11.67536
669.12,63.75667,     -11.67631
669.638,63.80833,     -11.67736
670.157,63.86000,     -11.67872
670.67,63.91167,     -11.67987
671.186,63.96333,     -11.68132
671.703,64.01500,     -11.68247
672.218,64.06667,     -11.68353
672.737,64.11833,     -11.68568
673.253,64.17000,     -11.68783
673.771,64.22167,     -11.69018
674.289,64.27333,     -11.69183
674.803,64.32500,     -11.69329
675.321,64.37667,     -11.69414
675.835,64.42833,     -11.69509
676.35,64.48000,     -11.69614
676.867,64.53167,     -11.69669
677.383,64.58333,     -11.69734
677.898,64.63500,     -11.69820
678.412,64.68667,     -11.69925
678.929,64.73833,     -11.70050
679.444,64.79000,     -11.70185
679.959,64.84167,     -11.70390
680.474,64.89333,     -11.70655
680.989,64.94500,     -11.70890
681.503,64.99667,     -11.71076
682.022,65.04833,     -11.71160
682.538,65.10000,     -11.71195
683.056,65.15167,     -11.71200
683.572,65.20333,     -11.71265
684.09,65.25500,     -11.71420
684.605,65.30667,     -11.71675
685.122,65.35833,     -11.72041
685.639,65.41000,     -11.72365
686.155,65.46167,     -11.72510
686.674,65.51333,     -11.72575
687.189,65.56500,     -11.72580
687.71,65.61667,     -11.72585
688.227,65.66833,     -11.72590
688.745,65.72000,     -11.72635
689.262,65.77167,     -11.72709
689.78,65.82333,     -11.72834
690.297,65.87500,     -11.72979
690.813,65.92667,     -11.73154
691.329,65.97833,     -11.73379
691.845,66.03000,     -11.73564
692.363,66.08167,     -11.73719
692.877,66.13333,     -11.73854
693.394,66.18500,     -11.73939
693.908,66.23667,     -11.74014
694.427,66.28833,     -11.74059
694.945,66.34000,     -11.74103
695.462,66.39167,     -11.74178
695.981,66.44333,     -11.74253
696.496,66.49500,     -11.74338
697.016,66.54667,     -11.74462
697.532,66.59833,     -11.74647
698.047,66.65000,     -11.74952
698.561,66.70167,     -11.75247
699.075,66.75333,     -11.75482
699.59,66.80500,     -11.75587
700.106,66.85667,     -11.75632
700.623,66.90833,     -11.75676
701.138,66.96000,     -11.75771
701.658,67.01167,     -11.75876
702.175,67.06333,     -11.75960
702.695,67.11500,     -11.76065
703.214,67.16667,     -11.76140
703.73,67.21833,     -11.76214
704.246,67.27000,     -11.76279
704.758,67.32167,     -11.76455
705.27,67.37333,     -11.76670
705.783,67.42500,     -11.76815
706.299,67.47667,     -11.76909
706.817,67.52833,     -11.76954
707.34,67.58000,     -11.77008
707.854,67.63167,     -11.77053
708.372,67.68333,     -11.77108
708.888,67.73500,     -11.77173
709.404,67.78667,     -11.77268
709.918,67.83833,     -11.77402
710.432,67.89000,     -11.77567
710.949,67.94167,     -11.77712
711.468,67.99333,     -11.77806
711.987,68.04500,     -11.77921
712.507,68.09667,     -11.78066
713.023,68.14833,     -11.78240
713.541,68.20000,     -11.78425
714.056,68.25167,     -11.78580
714.575,68.30333,     -11.78744
715.093,68.35500,     -11.78859
715.61,68.40667,     -11.78934
716.127,68.45833,     -11.79009
716.64,68.51000,     -11.79104
717.155,68.56167,     -11.79188
717.673,68.61333,     -11.79313
718.188,68.66500,     -11.79488
718.701,68.71667,     -11.79673
719.222,68.76833,     -11.79777
719.736,68.82000,     -11.79812
720.253,68.87167,     -11.79826
720.768,68.92333,     -11.79821
721.285,68.97500,     -11.79846
721.796,69.02667,     -11.79861
722.315,69.07833,     -11.79915
722.832,69.13000,     -11.80020
723.347,69.18167,     -11.80145
723.865,69.23333,     -11.80319
724.38,69.28500,     -11.80474
724.897,69.33667,     -11.80638
725.411,69.38833,     -11.80773
725.928,69.44000,     -11.80868
726.444,69.49167,     -11.80972
726.959,69.54333,     -11.81147
727.475,69.59500,     -11.81432
727.993,69.64667,     -11.81776
728.517,69.69833,     -11.82060
729.038,69.75000,     -11.82064
729.554,69.80167,     -11.82049
730.071,69.85333,     -11.82044
730.584,69.90500,     -11.82069
731.098,69.95667,     -11.82123
731.612,70.00833,     -11.82188
732.126,70.06000,     -11.82253
732.642,70.11167,     -11.82287
733.163,70.16333,     -11.82271
733.685,70.21500,     -11.82235
734.204,70.26667,     -11.82239
734.721,70.31833,     -11.82304
735.234,70.37000,     -11.82429
735.748,70.42167,     -11.82614
736.263,70.47333,     -11.82898
736.775,70.52500,     -11.83153
737.292,70.57667,     -11.83267
737.809,70.62833,     -11.83271
738.331,70.68000,     -11.83265
738.845,70.73167,     -11.83320
739.361,70.78333,     -11.83414
739.876,70.83500,     -11.83559
740.39,70.88667,     -11.83823
740.909,70.93833,     -11.84167
741.427,70.99000,     -11.84361
741.943,71.04167,     -11.84436
742.459,71.09333,     -11.84470
742.974,71.14500,     -11.84464
743.486,71.19667,     -11.84439
744.005,71.24833,     -11.84423
744.525,71.30000,     -11.84447
745.042,71.35167,     -11.84491
745.56,71.40333,     -11.84535
746.077,71.45500,     -11.84600
746.59,71.50667,     -11.84704
747.11,71.55833,     -11.84828
747.623,71.61000,     -11.84952
748.14,71.66167,     -11.85186
748.656,71.71333,     -11.85451
749.173,71.76500,     -11.85615
749.691,71.81667,     -11.85619
750.211,71.86833,     -11.85623
750.728,71.92000,     -11.85587
751.248,71.97167,     -11.85600
751.765,72.02333,     -11.85625
752.277,72.07500,     -11.85739
752.792,72.12667,     -11.85943
753.304,72.17833,     -11.86207
753.818,72.23000,     -11.86491
754.332,72.28167,     -11.86696
754.849,72.33333,     -11.86799
755.366,72.38500,     -11.86863
755.884,72.43667,     -11.86917
756.402,72.48833,     -11.86991
756.922,72.54000,     -11.87044
757.438,72.59167,     -11.87118
757.955,72.64333,     -11.87202
758.475,72.69500,     -11.87226
758.99,72.74667,     -11.87230
759.503,72.79833,     -11.87244
760.022,72.85000,     -11.87377
760.534,72.90167,     -11.87602
761.047,72.95333,     -11.87835
761.564,73.00500,     -11.87919
762.082,73.05667,     -11.87922
762.601,73.10833,     -11.87896
763.116,73.16000,     -11.87890
763.637,73.21167,     -11.87903
764.153,73.26333,     -11.87917
764.666,73.31500,     -11.87951
765.182,73.36667,     -11.88075
765.696,73.41833,     -11.88218
766.212,73.47000,     -11.88432
766.732,73.52167,     -11.88575
767.251,73.57333,     -11.88668
767.766,73.62500,     -11.88792
768.28,73.67667,     -11.88926
768.798,73.72833,     -11.89009
769.314,73.78000,     -11.89072
769.832,73.83167,     -11.89126
770.344,73.88333,     -11.89209
770.862,73.93500,     -11.89283
771.378,73.98667,     -11.89366
771.895,74.03833,     -11.89399
772.412,74.09000,     -11.89433
772.933,74.14167,     -11.89465
773.448,74.19333,     -11.89549
773.963,74.24500,     -11.89682
774.482,74.29667,     -11.89785
774.995,74.34833,     -11.89909
775.509,74.40000,     -11.89992
776.026,74.45167,     -11.90075
776.543,74.50333,     -11.90158
777.057,74.55500,     -11.90271
777.577,74.60667,     -11.90384
778.096,74.65833,     -11.90517
778.612,74.71000,     -11.90670
779.131,74.76167,     -11.90753
779.649,74.81333,     -11.90836
780.168,74.86500,     -11.90899
780.684,74.91667,     -11.90962
781.203,74.96833,     -11.91055
781.718,75.02000,     -11.91138
782.233,75.07167,     -11.91211
782.75,75.12333,     -11.91314
783.266,75.17500,     -11.91437
783.782,75.22667,     -11.91559
784.298,75.27833,     -11.91682
784.816,75.33000,     -11.91765
785.332,75.38167,     -11.91828
785.849,75.43333,     -11.91860
786.367,75.48500,     -11.91873
786.886,75.53667,     -11.91875
787.402,75.58833,     -11.91958
787.916,75.64000,     -11.92081
788.432,75.69167,     -11.92163
788.948,75.74333,     -11.92276
789.466,75.79500,     -11.92388
789.98,75.84667,     -11.92511
790.497,75.89833,     -11.92603
791.015,75.95000,     -11.92726
791.535,76.00167,     -11.92848
792.053,76.05333,     -11.92940
792.571,76.10500,     -11.93063
793.086,76.15667,     -11.93205
793.601,76.20833,     -11.93337
794.118,76.26000,     -11.93410
794.633,76.31167,     -11.93512
795.147,76.36333,     -11.93584
795.667,76.41500,     -11.93606
796.183,76.46667,     -11.93588
796.703,76.51833,     -11.93580
797.219,76.57000,     -11.93592
797.736,76.62167,     -11.93645
798.254,76.67333,     -11.93726
798.772,76.72500,     -11.93868
799.286,76.77667,     -11.94081
799.353,76.78333,     -11.94098