File: data-raw/TGA/X_TGA.csv
#EXPORTTYPE:                 ,DATA SINGLE
#FILE:                       ,X.ngb-st9
#FORMAT:                     ,NETZSCH5
#FTYPE:                      ,ANSI
#IDENTITY:                   ,Saras
#DECIMAL:                    ,POINT
#SEPARATOR:                  ,COMMA
#MTYPE:                      ,TG
#INSTRUMENT:                 ,NETZSCH TG 209F1 Libra
#PROJECT:                    ,IL
#DATE/TIME:                  ,23/03/2017 10:55:01 AM (UTC+11)
#CORR. FILE:                 ,
#TEMPCAL:                    ,TCALZERO.TCX
#LABORATORY:                 ,Capture Lab
#OPERATOR:                   ,NJN
#REMARK:                     ,Training run
#SAMPLE:                     ,X
#SAMPLE MASS /mg:            ,11.2418
#MATERIAL:                   ,zeolite
#TYPE OF CRUCIBLE:           ,Al2O3
#SAMPLE CRUCIBLE MASS /mg:   ,312.0761
#REFERENCE CRUCIBLE MASS /mg:,
#M.RANGE /mg:                ,2000
#CORR. CODE:                 ,090
#RANGE:                      ,32°C/10.0(K/min)/800°C
#SEGMENT:                    ,S1/1
#SEG. 1:                     ,32°C/10.0(K/min)/800°C

##Temp./°C,Time/min,Mass loss/mg
 32.49300, 0.00000,-2.650532e-003
 32.48500, 0.05167,-4.259619e-003
 32.53700, 0.10333,-5.785701e-003
 32.82300, 0.15500,-6.356249e-003
 33.16500, 0.20667,-5.979970e-003
 33.47800, 0.25833,-6.561663e-003
 33.79300, 0.31000,-7.118059e-003
 34.15000, 0.36167,-7.934522e-003
 34.54800, 0.41333,-8.843719e-003
 34.96900, 0.46500,-9.542167e-003
 35.41800, 0.51667,-1.039356e-002
 35.89400, 0.56833,-1.126016e-002
 36.39600, 0.62000,-1.240346e-002
 36.92500, 0.67167,-1.353267e-002
 37.47300, 0.72333,-1.475665e-002
 38.04100, 0.77500,-1.624684e-002
 38.62800, 0.82667,-1.791411e-002
 39.22700, 0.87833,-1.961994e-002
 39.83400, 0.93000,-2.151233e-002
 40.45500, 0.98167,-2.357428e-002
 41.08000, 1.03333,-2.648148e-002
 41.70600, 1.08500,-2.961833e-002
 42.33200, 1.13667,-3.286798e-002
 42.95400, 1.18833,-3.595740e-002
 43.58000, 1.24000,-3.946599e-002
 44.19900, 1.29167,-4.279393e-002
 44.81100, 1.34333,-4.566849e-002
 45.41500, 1.39500,-4.873547e-002
 46.01400, 1.44667,-5.157914e-002
 46.60500, 1.49833,-5.489583e-002
 47.18300, 1.55000,-5.837144e-002
 47.75900, 1.60167,-6.257659e-002
 48.32200, 1.65333,-6.615790e-002
 48.87700, 1.70500,-7.003628e-002
 49.42600, 1.75667,-7.422669e-002
 49.96500, 1.80833,-7.831597e-002
 50.49800, 1.86000,-8.279770e-002
 51.02800, 1.91167,-8.742572e-002
 51.54600, 1.96333,-9.183598e-002
 52.06600, 2.01500,-9.594909e-002
 52.57300, 2.06667,      -0.10067
 53.08700, 2.11833,      -0.10525
 53.59000, 2.17000,      -0.11039
 54.09700, 2.22167,      -0.11518
 54.59800, 2.27333,      -0.12068
 55.09700, 2.32500,      -0.12586
 55.59800, 2.37667,      -0.13108
 56.09400, 2.42833,      -0.13639
 56.59400, 2.48000,      -0.14141
 57.09300, 2.53167,      -0.14694
 57.59800, 2.58333,      -0.15230
 58.10100, 2.63500,      -0.15807
 58.60300, 2.68667,      -0.16411
 59.11000, 2.73833,      -0.16985
 59.62000, 2.79000,      -0.17611
 60.12400, 2.84167,      -0.18165
 60.63500, 2.89333,      -0.18771
 61.14600, 2.94500,      -0.19336
 61.65700, 2.99667,      -0.19961
 62.16800, 3.04833,      -0.20545
 62.68500, 3.10000,      -0.21172
 63.19800, 3.15167,      -0.21794
 63.71500, 3.20333,      -0.22429
 64.23500, 3.25500,      -0.23094
 64.74900, 3.30667,      -0.23757
 65.26900, 3.35833,      -0.24441
 65.79000, 3.41000,      -0.25075
 66.31300, 3.46167,      -0.25748
 66.83400, 3.51333,      -0.26381
 67.35400, 3.56500,      -0.27073
 67.87700, 3.61667,      -0.27705
 68.39500, 3.66833,      -0.28405
 68.91900, 3.72000,      -0.29118
 69.43800, 3.77167,      -0.29729
 69.96600, 3.82333,      -0.30463
 70.48600, 3.87500,      -0.31093
 71.00600, 3.92667,      -0.31773
 71.52800, 3.97833,      -0.32425
 72.04300, 4.03000,      -0.33092
 72.56100, 4.08167,      -0.33732
 73.08100, 4.13333,      -0.34413
 73.59600, 4.18500,      -0.35131
 74.11600, 4.23667,      -0.35813
 74.63500, 4.28833,      -0.36523
 75.15200, 4.34000,      -0.37144
 75.67000, 4.39167,      -0.37825
 76.19000, 4.44333,      -0.38486
 76.70600, 4.49500,      -0.39075
 77.22300, 4.54667,      -0.39735
 77.74100, 4.59833,      -0.40326
 78.25900, 4.65000,      -0.40934
 78.77600, 4.70167,      -0.41534
 79.29600, 4.75333,      -0.42175
 79.81300, 4.80500,      -0.42764
 80.33100, 4.85667,      -0.43395
 80.84900, 4.90833,      -0.43984
 81.36600, 4.96000,      -0.44633
 81.88300, 5.01167,      -0.45284
 82.40000, 5.06333,      -0.45863
 82.91700, 5.11500,      -0.46444
 83.43600, 5.16667,      -0.46994
 83.95700, 5.21833,      -0.47585
 84.47200, 5.27000,      -0.48094
 84.99200, 5.32167,      -0.48683
 85.50600, 5.37333,      -0.49241
 86.02400, 5.42500,      -0.49821
 86.54100, 5.47667,      -0.50430
 87.05800, 5.52833,      -0.50970
 87.57600, 5.58000,      -0.51490
 88.09300, 5.63167,      -0.51979
 88.61000, 5.68333,      -0.52508
 89.12800, 5.73500,      -0.52987
 89.64400, 5.78667,      -0.53466
 90.15900, 5.83833,      -0.53936
 90.67800, 5.89000,      -0.54466
 91.19700, 5.94167,      -0.54925
 91.71500, 5.99333,      -0.55355
 92.23200, 6.04500,      -0.55774
 92.74900, 6.09667,      -0.56202
 93.26800, 6.14833,      -0.56653
 93.78500, 6.20000,      -0.57073
 94.30800, 6.25167,      -0.57513
 94.82600, 6.30333,      -0.57883
 95.34200, 6.35500,      -0.58351
 95.85700, 6.40667,      -0.58809
 96.37500, 6.45833,      -0.59227
 96.89400, 6.51000,      -0.59677
 97.41300, 6.56167,      -0.60076
 97.93200, 6.61333,      -0.60515
 98.44500, 6.66500,      -0.60894
 98.96500, 6.71667,      -0.61263
 99.48000, 6.76833,      -0.61601
 99.99300, 6.82000,      -0.61960
100.515, 6.87167,      -0.62323
101.025, 6.92333,      -0.62672
101.543, 6.97500,      -0.63014
102.058, 7.02667,      -0.63365
102.575, 7.07833,      -0.63706
103.087, 7.13000,      -0.64047
103.605, 7.18167,      -0.64378
104.12, 7.23333,      -0.64668
104.638, 7.28500,      -0.64949
105.152, 7.33667,      -0.65250
105.669, 7.38833,      -0.65530
106.184, 7.44000,      -0.65851
106.701, 7.49167,      -0.66171
107.218, 7.54333,      -0.66472
107.736, 7.59500,      -0.66761
108.251, 7.64667,      -0.67061
108.77, 7.69833,      -0.67381
109.283, 7.75000,      -0.67649
109.804, 7.80167,      -0.67930
110.315, 7.85333,      -0.68158
110.838, 7.90500,      -0.68419
111.354, 7.95667,      -0.68628
111.874, 8.00833,      -0.68858
112.39, 8.06000,      -0.69055
112.907, 8.11167,      -0.69264
113.424, 8.16333,      -0.69472
113.943, 8.21500,      -0.69760
114.458, 8.26667,      -0.69998
114.976, 8.31833,      -0.70207
115.492, 8.37000,      -0.70435
116.009, 8.42167,      -0.70593
116.526, 8.47333,      -0.70782
117.038, 8.52500,      -0.70937
117.558, 8.57667,      -0.71146
118.072, 8.62833,      -0.71373
118.587, 8.68000,      -0.71570
119.101, 8.73167,      -0.71796
119.616, 8.78333,      -0.72093
120.129, 8.83500,      -0.72340
120.645, 8.88667,      -0.72518
121.159, 8.93833,      -0.72664
121.672, 8.99000,      -0.72781
122.191, 9.04167,      -0.72929
122.708, 9.09333,      -0.73127
123.224, 9.14500,      -0.73393
123.741, 9.19667,      -0.73640
124.259, 9.24833,      -0.73817
124.777, 9.30000,      -0.73983
125.293, 9.35167,      -0.74130
125.809, 9.40333,      -0.74285
126.328, 9.45500,      -0.74391
126.845, 9.50667,      -0.74537
127.361, 9.55833,      -0.74684
127.881, 9.61000,      -0.74830
128.396, 9.66167,      -0.75005
128.916, 9.71333,      -0.75212
129.431, 9.76500,      -0.75416
129.949, 9.81667,      -0.75552
130.466, 9.86833,      -0.75667
130.981, 9.92000,      -0.75802
131.499, 9.97167,      -0.75928
132.015,10.02333,      -0.76023
132.538,10.07500,      -0.76169
133.052,10.12667,      -0.76293
133.569,10.17833,      -0.76438
134.084,10.23000,      -0.76603
134.604,10.28167,      -0.76748
135.12,10.33333,      -0.76873
135.637,10.38500,      -0.77007
136.154,10.43667,      -0.77142
136.671,10.48833,      -0.77286
137.188,10.54000,      -0.77422
137.703,10.59167,      -0.77535
138.219,10.64333,      -0.77640
138.736,10.69500,      -0.77774
139.255,10.74667,      -0.77899
139.77,10.79833,      -0.77992
140.289,10.85000,      -0.78067
140.806,10.90167,      -0.78181
141.322,10.95333,      -0.78255
141.837,11.00500,      -0.78348
142.354,11.05667,      -0.78443
142.87,11.10833,      -0.78557
143.387,11.16000,      -0.78660
143.906,11.21167,      -0.78754
144.422,11.26333,      -0.78858
144.94,11.31500,      -0.78962
145.459,11.36667,      -0.79076
145.977,11.41833,      -0.79169
146.494,11.47000,      -0.79293
147.008,11.52167,      -0.79416
147.523,11.57333,      -0.79559
148.038,11.62500,      -0.79712
148.557,11.67667,      -0.79836
149.074,11.72833,      -0.79949
149.587,11.78000,      -0.80023
150.107,11.83167,      -0.80116
150.622,11.88333,      -0.80189
151.137,11.93500,      -0.80312
151.658,11.98667,      -0.80456
152.174,12.03833,      -0.80568
152.69,12.09000,      -0.80682
153.208,12.14167,      -0.80775
153.724,12.19333,      -0.80878
154.242,12.24500,      -0.80991
154.755,12.29667,      -0.81103
155.274,12.34833,      -0.81166
155.79,12.40000,      -0.81249
156.309,12.45167,      -0.81313
156.823,12.50333,      -0.81395
157.342,12.55500,      -0.81498
157.858,12.60667,      -0.81621
158.373,12.65833,      -0.81763
158.889,12.71000,      -0.81876
159.405,12.76167,      -0.82009
159.923,12.81333,      -0.82102
160.439,12.86500,      -0.82205
160.957,12.91667,      -0.82328
161.472,12.96833,      -0.82430
161.989,13.02000,      -0.82563
162.506,13.07167,      -0.82695
163.021,13.12333,      -0.82798
163.537,13.17500,      -0.82901
164.053,13.22667,      -0.83043
164.571,13.27833,      -0.83166
165.086,13.33000,      -0.83289
165.602,13.38167,      -0.83451
166.119,13.43333,      -0.83564
166.637,13.48500,      -0.83737
167.152,13.53667,      -0.83899
167.67,13.58833,      -0.84102
168.183,13.64000,      -0.84264
168.703,13.69167,      -0.84367
169.219,13.74333,      -0.84410
169.737,13.79500,      -0.84523
170.251,13.84667,      -0.84755
170.767,13.89833,      -0.84948
171.286,13.95000,      -0.85090
171.805,14.00167,      -0.85263
172.317,14.05333,      -0.85455
172.835,14.10500,      -0.85658
173.35,14.15667,      -0.85850
173.868,14.20833,      -0.85993
174.38,14.26000,      -0.86186
174.902,14.31167,      -0.86389
175.415,14.36333,      -0.86612
175.933,14.41500,      -0.86824
176.45,14.46667,      -0.86997
176.969,14.51833,      -0.87120
177.486,14.57000,      -0.87213
178.006,14.62167,      -0.87336
178.523,14.67333,      -0.87499
179.039,14.72500,      -0.87762
179.553,14.77667,      -0.88083
180.071,14.82833,      -0.88407
180.588,14.88000,      -0.88670
181.102,14.93167,      -0.88892
181.618,14.98333,      -0.89105
182.133,15.03500,      -0.89338
182.651,15.08667,      -0.89571
183.168,15.13833,      -0.89714
183.688,15.19000,      -0.89918
184.205,15.24167,      -0.90161
184.722,15.29333,      -0.90434
185.237,15.34500,      -0.90707
185.757,15.39667,      -0.90941
186.275,15.44833,      -0.91224
186.79,15.50000,      -0.91507
187.307,15.55167,      -0.91820
187.827,15.60333,      -0.92124
188.34,15.65500,      -0.92406
188.858,15.70667,      -0.92690
189.373,15.75833,      -0.92973
189.891,15.81000,      -0.93317
190.405,15.86167,      -0.93630
190.924,15.91333,      -0.93954
191.438,15.96500,      -0.94278
191.955,16.01667,      -0.94641
192.472,16.06833,      -0.95005
192.986,16.12000,      -0.95399
193.503,16.17167,      -0.95823
194.018,16.22333,      -0.96246
194.536,16.27500,      -0.96661
195.053,16.32667,      -0.97035
195.573,16.37833,      -0.97459
196.093,16.43000,      -0.97853
196.606,16.48167,      -0.98247
197.121,16.53333,      -0.98641
197.641,16.58500,      -0.99075
198.155,16.63667,      -0.99569
198.672,16.68833,      -1.00034
199.188,16.74000,      -1.00508
199.706,16.79167,      -1.00973
200.223,16.84333,      -1.01478
200.735,16.89500,      -1.01942
201.254,16.94667,      -1.02456
201.768,16.99833,      -1.02951
202.282,17.05000,      -1.03505
202.801,17.10167,      -1.04090
203.316,17.15333,      -1.04635
203.835,17.20500,      -1.05240
204.352,17.25667,      -1.05805
204.868,17.30833,      -1.06429
205.384,17.36000,      -1.07044
205.902,17.41167,      -1.07689
206.42,17.46333,      -1.08284
206.937,17.51500,      -1.08988
207.457,17.56667,      -1.09723
207.97,17.61833,      -1.10378
208.491,17.67000,      -1.11063
209.006,17.72167,      -1.11728
209.523,17.77333,      -1.12422
210.041,17.82500,      -1.13067
210.559,17.87667,      -1.13802
211.076,17.92833,      -1.14517
211.594,17.98000,      -1.15312
212.11,18.03167,      -1.16146
212.629,18.08333,      -1.16922
213.14,18.13500,      -1.17746
213.659,18.18667,      -1.18521
214.177,18.23833,      -1.19366
214.693,18.29000,      -1.20151
215.21,18.34167,      -1.21056
215.728,18.39333,      -1.21911
216.242,18.44500,      -1.22836
216.758,18.49667,      -1.23731
217.276,18.54833,      -1.24576
217.791,18.60000,      -1.25501
218.308,18.65167,      -1.26346
218.825,18.70333,      -1.27291
219.343,18.75500,      -1.28236
219.856,18.80667,      -1.29231
220.374,18.85833,      -1.30266
220.887,18.91000,      -1.31221
221.408,18.96167,      -1.32246
221.918,19.01333,      -1.33201
222.436,19.06500,      -1.34226
222.955,19.11667,      -1.35221
223.47,19.16833,      -1.36276
223.989,19.22000,      -1.37281
224.505,19.27167,      -1.38326
225.02,19.32333,      -1.39301
225.538,19.37500,      -1.40397
226.054,19.42667,      -1.41512
226.574,19.47833,      -1.42567
227.089,19.53000,      -1.43702
227.606,19.58167,      -1.44757
228.119,19.63333,      -1.45952
228.639,19.68500,      -1.47017
229.152,19.73667,      -1.48212
229.674,19.78833,      -1.49338
230.189,19.84000,      -1.50563
230.706,19.89167,      -1.51818
231.222,19.94333,      -1.52963
231.738,19.99500,      -1.54208
232.254,20.04667,      -1.55343
232.769,20.09833,      -1.56509
233.284,20.15000,      -1.57754
233.803,20.20167,      -1.59039
234.32,20.25333,      -1.60274
234.838,20.30500,      -1.61530
235.353,20.35667,      -1.62825
235.869,20.40833,      -1.64030
236.38,20.46000,      -1.65295
236.896,20.51167,      -1.66560
237.411,20.56333,      -1.67905
237.927,20.61500,      -1.69181
238.446,20.66667,      -1.71996
238.96,20.71833,      -1.72841
239.479,20.77000,      -1.73917
239.997,20.82167,      -1.75092
240.517,20.87333,      -1.76317
241.032,20.92500,      -1.78682
241.55,20.97667,      -1.79617
242.066,21.02833,      -1.80743
242.583,21.08000,      -1.81908
243.098,21.13167,      -1.84443
243.616,21.18333,      -1.85378
244.137,21.23500,      -1.86554
244.652,21.28667,      -1.87849
245.165,21.33833,      -1.90184
245.683,21.39000,      -1.91239
246.202,21.44167,      -1.92414
246.716,21.49333,      -1.94559
247.233,21.54500,      -1.95855
247.75,21.59667,      -1.97040
248.267,21.64833,      -1.98315
248.781,21.70000,      -2.00830
249.298,21.75167,      -2.01995
249.816,21.80333,      -2.03231
250.332,21.85500,      -2.05246
250.849,21.90667,      -2.07231
251.365,21.95833,      -2.08406
251.882,22.01000,      -2.09612
252.398,22.06167,      -2.11577
252.913,22.11333,      -2.13812
253.43,22.16500,      -2.15557
253.946,22.21667,      -2.17292
254.46,22.26833,      -2.18937
254.975,22.32000,      -2.20652
255.49,22.37167,      -2.22328
256.01,22.42333,      -2.23493
256.523,22.47500,      -2.25338
257.043,22.52667,      -2.27453
257.56,22.57833,      -2.29268
258.075,22.63000,      -2.31004
258.591,22.68167,      -2.32909
259.107,22.73333,      -2.34644
259.624,22.78500,      -2.36599
260.141,22.83667,      -2.38344
260.655,22.88833,      -2.40199
261.174,22.94000,      -2.41944
261.694,22.99167,      -2.43909
262.207,23.04333,      -2.45854
262.726,23.09500,      -2.47680
263.238,23.14667,      -2.49795
263.756,23.19833,      -2.51710
264.272,23.25000,      -2.53715
264.789,23.30167,      -2.55650
265.309,23.35333,      -2.57705
265.826,23.40500,      -2.59690
266.343,23.45667,      -2.61765
266.862,23.50833,      -2.63760
267.379,23.56000,      -2.65915
267.896,23.61167,      -2.68100
268.414,23.66333,      -2.70175
268.93,23.71500,      -2.72450
269.446,23.76667,      -2.74535
269.963,23.81833,      -2.76740
270.478,23.87000,      -2.78895
270.997,23.92167,      -2.81220
271.512,23.97333,      -2.83514
272.028,24.02500,      -2.85739
272.547,24.07667,      -2.88024
273.061,24.12833,      -2.90249
273.575,24.18000,      -2.92704
274.093,24.23167,      -2.94949
274.608,24.28333,      -2.97404
275.125,24.33500,      -2.99699
275.641,24.38667,      -3.02193
276.158,24.43833,      -3.04528
276.676,24.49000,      -3.07083
277.193,24.54167,      -3.09638
277.708,24.59333,      -3.12013
278.225,24.64500,      -3.14547
278.739,24.69667,      -3.16922
279.261,24.74833,      -3.19407
279.777,24.80000,      -3.21812
280.292,24.85167,      -3.24376
280.81,24.90333,      -3.27041
281.328,24.95500,      -3.29626
281.841,25.00667,      -3.32230
282.359,25.05833,      -3.34735
282.881,25.11000,      -3.37400
283.4,25.16167,      -3.39864
283.92,25.21333,      -3.42499
284.438,25.26500,      -3.45103
284.99,25.31667,      -3.47848
285.501,25.36833,      -3.50682
286.014,25.42000,      -3.53327
286.523,25.47167,      -3.55981
287.029,25.52333,      -3.58486
287.534,25.57500,      -3.61500
288.042,25.62667,      -3.64055
288.554,25.67833,      -3.66849
289.067,25.73000,      -3.69514
289.582,25.78167,      -3.72338
290.099,25.83333,      -3.75193
290.612,25.88500,      -3.77867
291.13,25.93667,      -3.80672
291.643,25.98833,      -3.83356
292.162,26.04000,      -3.86210
292.675,26.09167,      -3.88865
293.19,26.14333,      -3.91799
293.71,26.19500,      -3.94533
294.23,26.24667,      -3.97387
294.747,26.29833,      -4.00252
295.264,26.35000,      -4.02986
295.779,26.40167,      -4.05890
296.296,26.45333,      -4.08684
296.815,26.50500,      -4.11578
297.326,26.55667,      -4.14342
297.843,26.60833,      -4.17196
298.362,26.66000,      -4.19991
298.875,26.71167,      -4.22855
299.396,26.76333,      -4.25769
299.914,26.81500,      -4.28473
300.429,26.86667,      -4.31567
300.945,26.91833,      -4.34301
301.463,26.97000,      -4.37375
301.978,27.02167,      -4.40089
302.494,27.07333,      -4.43083
303.014,27.12500,      -4.45857
303.527,27.17667,      -4.48841
304.047,27.22833,      -4.51845
304.564,27.28000,      -4.54739
305.076,27.33167,      -4.57763
305.595,27.38333,      -4.60567
306.111,27.43500,      -4.63591
306.626,27.48667,      -4.66435
307.141,27.53833,      -4.69489
307.656,27.59000,      -4.72323
308.174,27.64167,      -4.75337
308.69,27.69333,      -4.78331
309.21,27.74500,      -4.81205
309.726,27.79667,      -4.84309
310.244,27.84833,      -4.87263
310.762,27.90000,      -4.90397
311.277,27.95167,      -4.93281
311.794,28.00333,      -4.96375
312.31,28.05500,      -4.99279
312.827,28.10667,      -5.02333
313.345,28.15833,      -5.05387
313.861,28.21000,      -5.08351
314.377,28.26167,      -5.11455
314.897,28.31333,      -5.14389
315.41,28.36500,      -5.17583
315.925,28.41667,      -5.20407
316.444,28.46833,      -5.23531
316.96,28.52000,      -5.26325
317.475,28.57167,      -5.29389
317.993,28.62333,      -5.32423
318.513,28.67500,      -5.35307
319.03,28.72667,      -5.38301
319.543,28.77833,      -5.41135
320.06,28.83000,      -5.44099
320.575,28.88167,      -5.46843
321.089,28.93333,      -5.49697
321.608,28.98500,      -5.52341
322.13,29.03667,      -5.55225
322.649,29.08833,      -5.58059
323.162,29.14000,      -5.60643
323.677,29.19167,      -5.63397
324.192,29.24333,      -5.65901
324.703,29.29500,      -5.68585
325.222,29.34667,      -5.70939
325.737,29.39833,      -5.73443
326.253,29.45000,      -5.75737
326.773,29.50167,      -5.78170
327.288,29.55333,      -5.80564
327.807,29.60500,      -5.82788
328.321,29.65667,      -5.85142
328.837,29.70833,      -5.87346
329.351,29.76000,      -5.89620
329.869,29.81167,      -5.91744
330.382,29.86333,      -5.93918
330.902,29.91500,      -5.95862
331.413,29.96667,      -5.97846
331.929,30.01833,      -5.99810
332.446,30.07000,      -6.01634
332.964,30.12167,      -6.03528
333.479,30.17333,      -6.05221
333.996,30.22500,      -6.07045
334.515,30.27667,      -6.08729
335.034,30.32833,      -6.10463
335.551,30.38000,      -6.11567
336.067,30.43167,      -6.12761
336.582,30.48333,      -6.15195
337.094,30.53500,      -6.16149
337.613,30.58667,      -6.17332
338.132,30.63833,      -6.18536
338.647,30.69000,      -6.21020
339.16,30.74167,      -6.21834
339.678,30.79333,      -6.22918
340.195,30.84500,      -6.23991
340.709,30.89667,      -6.25245
341.228,30.94833,      -6.26539
341.744,31.00000,      -6.28623
342.26,31.05167,      -6.29467
342.777,31.10333,      -6.30420
343.295,31.15500,      -6.31554
343.811,31.20667,      -6.32628
344.326,31.25833,      -6.33842
344.842,31.31000,      -6.34905
345.361,31.36167,      -6.36109
345.875,31.41333,      -6.37233
346.392,31.46500,      -6.38246
346.91,31.51667,      -6.39370
347.427,31.56833,      -6.40364
347.943,31.62000,      -6.41417
348.46,31.67167,      -6.42371
348.977,31.72333,      -6.43445
349.495,31.77500,      -6.44498
350.006,31.82667,      -6.45532
350.524,31.87833,      -6.46576
351.039,31.93000,      -6.47509
351.555,31.98167,      -6.48533
352.074,32.03333,      -6.49496
352.589,32.08500,      -6.50520
353.107,32.13667,      -6.51464
353.623,32.18833,      -6.52427
354.137,32.24000,      -6.53341
354.656,32.29167,      -6.54324
355.175,32.34333,      -6.55258
355.688,32.39500,      -6.56161
356.206,32.44667,      -6.57075
356.724,32.49833,      -6.57988
357.239,32.55000,      -6.58942
357.755,32.60167,      -6.59805
358.273,32.65333,      -6.60699
358.784,32.70500,      -6.61512
359.301,32.75667,      -6.62426
359.82,32.80833,      -6.63349
360.336,32.86000,      -6.64192
360.852,32.91167,      -6.65106
361.369,32.96333,      -6.65889
361.885,33.01500,      -6.66752
362.405,33.06667,      -6.67546
362.918,33.11833,      -6.68439
363.436,33.17000,      -6.69262
363.953,33.22167,      -6.69996
364.469,33.27333,      -6.70999
364.986,33.32500,      -6.71842
365.499,33.37667,      -6.72676
366.017,33.42833,      -6.73439
366.533,33.48000,      -6.74232
367.048,33.53167,      -6.74986
367.565,33.58333,      -6.75829
368.081,33.63500,      -6.76612
368.598,33.68667,      -6.77415
369.114,33.73833,      -6.78208
369.633,33.79000,      -6.78981
370.15,33.84167,      -6.79774
370.666,33.89333,      -6.80517
371.184,33.94500,      -6.81301
371.7,33.99667,      -6.82014
372.213,34.04833,      -6.82817
372.729,34.10000,      -6.83530
373.241,34.15167,      -6.84343
373.757,34.20333,      -6.85196
374.272,34.25500,      -6.85920
374.787,34.30667,      -6.86722
375.304,34.35833,      -6.87415
375.82,34.41000,      -6.88198
376.34,34.46167,      -6.88891
376.859,34.51333,      -6.89634
377.376,34.56500,      -6.90337
377.894,34.61667,      -6.91080
378.412,34.66833,      -6.91862
378.927,34.72000,      -6.92555
379.444,34.77167,      -6.93268
379.957,34.82333,      -6.93931
380.472,34.87500,      -6.94654
380.99,34.92667,      -6.95347
381.504,34.97833,      -6.96110
382.021,35.03000,      -6.96783
382.54,35.08167,      -6.97525
383.054,35.13333,      -6.98218
383.57,35.18500,      -6.98911
384.086,35.23667,      -6.99633
384.602,35.28833,      -7.00316
385.121,35.34000,      -7.01058
385.636,35.39167,      -7.01721
386.154,35.44333,      -7.02464
386.67,35.49500,      -7.03106
387.186,35.54667,      -7.03809
387.703,35.59833,      -7.04522
388.221,35.65000,      -7.05164
388.74,35.70167,      -7.05726
389.258,35.75333,      -7.06479
389.773,35.80500,      -7.07162
390.288,35.85667,      -7.07754
390.801,35.90833,      -7.08357
391.317,35.96000,      -7.08990
391.831,36.01167,      -7.09732
392.344,36.06333,      -7.10424
392.857,36.11500,      -7.11067
393.369,36.16667,      -7.11859
393.885,36.21833,      -7.12511
394.401,36.27000,      -7.13124
394.92,36.32167,      -7.13765
395.439,36.37333,      -7.14407
395.955,36.42500,      -7.15100
396.473,36.47667,      -7.15802
396.99,36.52833,      -7.16464
397.508,36.58000,      -7.17076
398.024,36.63167,      -7.17668
398.536,36.68333,      -7.18261
399.055,36.73500,      -7.18903
399.57,36.78667,      -7.19555
400.087,36.83833,      -7.20217
400.604,36.89000,      -7.20809
401.12,36.94167,      -7.21381
401.639,36.99333,      -7.21963
402.153,37.04500,      -7.22555
402.672,37.09667,      -7.23197
403.186,37.14833,      -7.23809
403.701,37.20000,      -7.24491
404.217,37.25167,      -7.25103
404.732,37.30333,      -7.25785
405.251,37.35500,      -7.26327
405.769,37.40667,      -7.26878
406.283,37.45833,      -7.27441
406.801,37.51000,      -7.27962
407.316,37.56167,      -7.28544
407.833,37.61333,      -7.29086
408.349,37.66500,      -7.29678
408.867,37.71667,      -7.30250
409.383,37.76833,      -7.30862
409.9,37.82000,      -7.31433
410.415,37.87167,      -7.31995
410.929,37.92333,      -7.32597
411.446,37.97500,      -7.33139
411.961,38.02667,      -7.33701
412.48,38.07833,      -7.34252
412.995,38.13000,      -7.34844
413.511,38.18167,      -7.35396
414.027,38.23333,      -7.35998
414.542,38.28500,      -7.36609
415.055,38.33667,      -7.37221
415.569,38.38833,      -7.37803
416.086,38.44000,      -7.38395
416.6,38.49167,      -7.38976
417.119,38.54333,      -7.39498
417.638,38.59500,      -7.40039
418.156,38.64667,      -7.40501
418.673,38.69833,      -7.41002
419.194,38.75000,      -7.41504
419.71,38.80167,      -7.42055
420.226,38.85333,      -7.42627
420.745,38.90500,      -7.43179
421.259,38.95667,      -7.43830
421.771,39.00833,      -7.44412
422.285,39.06000,      -7.44984
422.801,39.11167,      -7.45485
423.321,39.16333,      -7.46016
423.837,39.21500,      -7.46488
424.356,39.26667,      -7.46979
424.874,39.31833,      -7.47470
425.393,39.37000,      -7.47962
425.907,39.42167,      -7.48523
426.421,39.47333,      -7.49035
426.939,39.52500,      -7.49566
427.452,39.57667,      -7.50068
427.967,39.62833,      -7.50599
428.485,39.68000,      -7.51081
429.004,39.73167,      -7.51582
429.521,39.78333,      -7.52073
430.039,39.83500,      -7.52554
430.554,39.88667,      -7.53056
431.07,39.93833,      -7.53507
431.589,39.99000,      -7.54038
432.103,40.04167,      -7.54540
432.615,40.09333,      -7.55071
433.132,40.14500,      -7.55553
433.648,40.19667,      -7.56104
434.165,40.24833,      -7.56565
434.68,40.30000,      -7.57046
435.195,40.35167,      -7.57627
435.712,40.40333,      -7.58129
436.228,40.45500,      -7.58660
436.74,40.50667,      -7.59141
437.255,40.55833,      -7.59632
437.772,40.61000,      -7.60153
438.288,40.66167,      -7.60665
438.804,40.71333,      -7.61206
439.319,40.76500,      -7.61627
439.84,40.81667,      -7.62117
440.357,40.86833,      -7.62538
440.873,40.92000,      -7.62980
441.389,40.97167,      -7.63441
441.906,41.02333,      -7.63912
442.421,41.07500,      -7.64313
442.935,41.12667,      -7.64764
443.454,41.17833,      -7.65205
443.971,41.23000,      -7.65636
444.489,41.28167,      -7.66077
445.004,41.33333,      -7.66558
445.52,41.38500,      -7.67069
446.034,41.43667,      -7.67550
446.555,41.48833,      -7.68051
447.071,41.54000,      -7.68441
447.589,41.59167,      -7.68852
448.107,41.64333,      -7.69263
448.623,41.69500,      -7.69614
449.142,41.74667,      -7.70025
449.657,41.79833,      -7.70426
450.171,41.85000,      -7.70867
450.686,41.90167,      -7.71298
451.2,41.95333,      -7.71759
451.716,42.00500,      -7.72160
452.233,42.05667,      -7.72590
452.748,42.10833,      -7.73061
453.266,42.16000,      -7.73472
453.782,42.21167,      -7.73902
454.298,42.26333,      -7.74303
454.817,42.31500,      -7.74694
455.332,42.36667,      -7.75045
455.853,42.41833,      -7.75415
456.369,42.47000,      -7.75766
456.882,42.52167,      -7.76147
457.401,42.57333,      -7.76527
457.919,42.62500,      -7.76888
458.436,42.67667,      -7.77309
458.953,42.72833,      -7.77709
459.466,42.78000,      -7.78140
459.979,42.83167,      -7.78541
460.497,42.88333,      -7.78972
461.011,42.93500,      -7.79322
461.525,42.98667,      -7.79723
462.04,43.03833,      -7.80073
462.558,43.09000,      -7.80454
463.076,43.14167,      -7.80844
463.594,43.19333,      -7.81185
464.109,43.24500,      -7.81565
464.629,43.29667,      -7.81925
465.146,43.34833,      -7.82316
465.661,43.40000,      -7.82707
466.179,43.45167,      -7.83047
466.695,43.50333,      -7.83418
467.212,43.55500,      -7.83758
467.73,43.60667,      -7.84098
468.243,43.65833,      -7.84389
468.759,43.71000,      -7.84679
469.274,43.76167,      -7.84990
469.791,43.81333,      -7.85320
470.306,43.86500,      -7.85641
470.825,43.91667,      -7.85911
471.34,43.96833,      -7.86171
471.858,44.02000,      -7.86431
472.375,44.07167,      -7.86712
472.891,44.12333,      -7.87002
473.406,44.17500,      -7.87363
473.921,44.22667,      -7.87733
474.435,44.27833,      -7.88124
474.947,44.33000,      -7.88434
475.463,44.38167,      -7.88754
475.986,44.43333,      -7.89004
476.504,44.48500,      -7.89184
477.018,44.53667,      -7.89374
477.535,44.58833,      -7.89564
478.055,44.64000,      -7.89804
478.57,44.69167,      -7.90005
479.083,44.74333,      -7.90285
479.601,44.79500,      -7.90595
480.111,44.84667,      -7.90916
480.625,44.89833,      -7.91276
481.141,44.95000,      -7.91606
481.653,45.00167,      -7.91897
482.171,45.05333,      -7.92136
482.688,45.10500,      -7.92376
483.206,45.15667,      -7.92616
483.72,45.20833,      -7.92846
484.241,45.26000,      -7.92996
484.757,45.31167,      -7.93216
485.275,45.36333,      -7.93476
485.787,45.41500,      -7.93726
486.307,45.46667,      -7.94006
486.821,45.51833,      -7.94236
487.338,45.57000,      -7.94496
487.855,45.62167,      -7.94726
488.368,45.67333,      -7.94966
488.888,45.72500,      -7.95186
489.405,45.77667,      -7.95376
489.923,45.82833,      -7.95586
490.441,45.88000,      -7.95806
490.957,45.93167,      -7.96016
491.474,45.98333,      -7.96245
491.988,46.03500,      -7.96475
492.506,46.08667,      -7.96695
493.022,46.13833,      -7.96915
493.539,46.19000,      -7.97105
494.058,46.24167,      -7.97334
494.572,46.29333,      -7.97544
495.085,46.34500,      -7.97775
495.603,46.39667,      -7.98004
496.12,46.44833,      -7.98204
496.635,46.50000,      -7.98404
497.149,46.55167,      -7.98634
497.667,46.60333,      -7.98843
498.182,46.65500,      -7.99073
498.694,46.70667,      -7.99273
499.214,46.75833,      -7.99482
499.731,46.81000,      -7.99652
500.247,46.86167,      -7.99871
500.765,46.91333,      -8.00031
501.278,46.96500,      -8.00191
501.795,47.01667,      -8.00301
502.312,47.06833,      -8.00450
502.829,47.12000,      -8.00590
503.344,47.17167,      -8.00770
503.856,47.22333,      -8.00990
504.375,47.27500,      -8.01199
504.892,47.32667,      -8.01398
505.408,47.37833,      -8.01608
505.924,47.43000,      -8.01818
506.44,47.48167,      -8.01947
506.955,47.53333,      -8.02087
507.47,47.58500,      -8.02277
507.989,47.63667,      -8.02476
508.507,47.68833,      -8.02715
509.02,47.74000,      -8.02955
509.538,47.79167,      -8.03174
510.051,47.84333,      -8.03344
510.568,47.89500,      -8.03514
511.086,47.94667,      -8.03623
511.603,47.99833,      -8.03752
512.12,48.05000,      -8.03902
512.634,48.10167,      -8.04032
513.15,48.15333,      -8.04231
513.668,48.20500,      -8.04440
514.18,48.25667,      -8.04630
514.698,48.30833,      -8.04779
515.216,48.36000,      -8.04959
515.734,48.41167,      -8.05118
516.251,48.46333,      -8.05287
516.768,48.51500,      -8.05497
517.284,48.56667,      -8.05676
517.8,48.61833,      -8.05836
518.315,48.67000,      -8.05995
518.831,48.72167,      -8.06205
519.345,48.77333,      -8.06354
519.861,48.82500,      -8.06444
520.381,48.87667,      -8.06453
520.896,48.92833,      -8.06492
521.413,48.98000,      -8.06611
521.928,49.03167,      -8.06751
522.442,49.08333,      -8.06890
522.959,49.13500,      -8.07049
523.476,49.18667,      -8.07289
523.991,49.23833,      -8.07528
524.503,49.29000,      -8.07768
525.022,49.34167,      -8.07957
525.539,49.39333,      -8.08146
526.054,49.44500,      -8.08295
526.571,49.49667,      -8.08434
527.089,49.54833,      -8.08613
527.603,49.60000,      -8.08823
528.118,49.65167,      -8.09012
528.638,49.70333,      -8.09111
529.154,49.75500,      -8.09220
529.673,49.80667,      -8.09329
530.19,49.85833,      -8.09428
530.708,49.91000,      -8.09547
531.225,49.96167,      -8.09657
531.741,50.01333,      -8.09816
532.258,50.06500,      -8.09925
532.772,50.11667,      -8.10054
533.288,50.16833,      -8.10193
533.8,50.22000,      -8.10333
534.316,50.27167,      -8.10482
534.831,50.32333,      -8.10701
535.347,50.37500,      -8.10900
535.864,50.42667,      -8.11039
536.382,50.47833,      -8.11138
536.898,50.53000,      -8.11217
537.417,50.58167,      -8.11315
537.935,50.63333,      -8.11414
538.452,50.68500,      -8.11543
538.967,50.73667,      -8.11662
539.481,50.78833,      -8.11802
539.998,50.84000,      -8.11941
540.513,50.89167,      -8.12050
541.027,50.94333,      -8.12199
541.545,50.99500,      -8.12327
542.061,51.04667,      -8.12466
542.58,51.09833,      -8.12585
543.096,51.15000,      -8.12704
543.615,51.20167,      -8.12843
544.128,51.25333,      -8.13012
544.642,51.30500,      -8.13211
545.156,51.35667,      -8.13430
545.674,51.40833,      -8.13618
546.187,51.46000,      -8.13737
546.704,51.51167,      -8.13856
547.219,51.56333,      -8.13965
547.735,51.61500,      -8.14094
548.25,51.66667,      -8.14172
548.766,51.71833,      -8.14181
549.285,51.77000,      -8.14290
549.8,51.82167,      -8.14488
550.317,51.87333,      -8.14647
550.831,51.92500,      -8.14756
551.348,51.97667,      -8.14845
551.864,52.02833,      -8.14903
552.377,52.08000,      -8.14992
552.895,52.13167,      -8.15081
553.411,52.18333,      -8.15199
553.93,52.23500,      -8.15318
554.446,52.28667,      -8.15456
554.959,52.33833,      -8.15665
555.478,52.39000,      -8.15883
555.996,52.44167,      -8.16122
556.512,52.49333,      -8.16241
557.029,52.54500,      -8.16369
557.542,52.59667,      -8.16457
558.061,52.64833,      -8.16496
558.576,52.70000,      -8.16535
559.093,52.75167,      -8.16573
559.613,52.80333,      -8.16611
560.132,52.85500,      -8.16679
560.65,52.90667,      -8.16788
561.168,52.95833,      -8.16896
561.684,53.01000,      -8.17075
562.198,53.06167,      -8.17263
562.712,53.11333,      -8.17462
563.229,53.16500,      -8.17600
563.745,53.21667,      -8.17689
564.261,53.26833,      -8.17807
564.78,53.32000,      -8.17895
565.297,53.37167,      -8.18003
565.818,53.42333,      -8.18081
566.334,53.47500,      -8.18170
566.847,53.52667,      -8.18308
567.362,53.57833,      -8.18436
567.881,53.63000,      -8.18545
568.399,53.68167,      -8.18643
568.914,53.73333,      -8.18751
569.432,53.78500,      -8.18849
569.948,53.83667,      -8.18957
570.466,53.88833,      -8.19095
570.977,53.94000,      -8.19314
571.495,53.99167,      -8.19592
572.013,54.04333,      -8.19700
572.53,54.09500,      -8.19718
573.046,54.14667,      -8.19736
573.564,54.19833,      -8.19804
574.077,54.25000,      -8.19852
574.596,54.30167,      -8.19970
575.114,54.35333,      -8.20068
575.628,54.40500,      -8.20196
576.147,54.45667,      -8.20284
576.665,54.50833,      -8.20352
577.183,54.56000,      -8.20460
577.701,54.61167,      -8.20607
578.216,54.66333,      -8.20745
578.731,54.71500,      -8.20853
579.251,54.76667,      -8.20991
579.764,54.81833,      -8.21129
580.284,54.87000,      -8.21257
580.795,54.92167,      -8.21405
581.31,54.97333,      -8.21563
581.827,55.02500,      -8.21681
582.342,55.07667,      -8.21718
582.857,55.12833,      -8.21786
583.378,55.18000,      -8.21864
583.896,55.23167,      -8.21961
584.413,55.28333,      -8.22059
584.929,55.33500,      -8.22197
585.447,55.38667,      -8.22334
585.962,55.43833,      -8.22432
586.477,55.49000,      -8.22560
586.994,55.54167,      -8.22677
587.511,55.59333,      -8.22775
588.029,55.64500,      -8.22872
588.545,55.69667,      -8.22990
589.061,55.74833,      -8.23098
589.58,55.80000,      -8.23195
590.097,55.85167,      -8.23272
590.616,55.90333,      -8.23360
591.133,55.95500,      -8.23487
591.653,56.00667,      -8.23614
592.166,56.05833,      -8.23782
592.689,56.11000,      -8.23909
593.203,56.16167,      -8.23997
593.721,56.21333,      -8.24094
594.238,56.26500,      -8.24212
594.754,56.31667,      -8.24359
595.269,56.36833,      -8.24587
595.784,56.42000,      -8.24844
596.3,56.47167,      -8.25051
596.82,56.52333,      -8.25138
597.332,56.57500,      -8.25196
597.847,56.62667,      -8.25283
598.369,56.67833,      -8.25370
598.885,56.73000,      -8.25467
599.402,56.78167,      -8.25544
599.921,56.83333,      -8.25631
600.439,56.88500,      -8.25748
600.953,56.93667,      -8.25856
601.469,56.98833,      -8.25993
601.986,57.04000,      -8.26110
602.501,57.09167,      -8.26257
603.017,57.14333,      -8.26364
603.533,57.19500,      -8.26491
604.053,57.24667,      -8.26618
604.57,57.29833,      -8.26745
605.089,57.35000,      -8.26842
605.604,57.40167,      -8.26939
606.121,57.45333,      -8.27086
606.639,57.50500,      -8.27203
607.154,57.55667,      -8.27310
607.668,57.60833,      -8.27437
608.185,57.66000,      -8.27554
608.698,57.71167,      -8.27661
609.212,57.76333,      -8.27788
609.729,57.81500,      -8.27914
610.247,57.86667,      -8.28031
610.768,57.91833,      -8.28197
611.285,57.97000,      -8.28354
611.805,58.02167,      -8.28521
612.322,58.07333,      -8.28648
612.837,58.12500,      -8.28754
613.353,58.17667,      -8.28851
613.867,58.22833,      -8.28988
614.385,58.28000,      -8.29115
614.899,58.33167,      -8.29232
615.412,58.38333,      -8.29349
615.926,58.43500,      -8.29525
616.441,58.48667,      -8.29642
616.958,58.53833,      -8.29829
617.474,58.59000,      -8.29995
617.991,58.64167,      -8.30221
618.507,58.69333,      -8.30338
619.023,58.74500,      -8.30474
619.541,58.79667,      -8.30591
620.06,58.84833,      -8.30677
620.574,58.90000,      -8.30764
621.092,58.95167,      -8.30880
621.608,59.00333,      -8.31017
622.125,59.05500,      -8.31153
622.642,59.10667,      -8.31289
623.159,59.15833,      -8.31366
623.675,59.21000,      -8.31452
624.189,59.26167,      -8.31699
624.7,59.31333,      -8.31926
625.218,59.36500,      -8.32082
625.732,59.41667,      -8.32198
626.248,59.46833,      -8.32264
626.766,59.52000,      -8.32371
627.286,59.57167,      -8.32486
627.8,59.62333,      -8.32623
628.315,59.67500,      -8.32829
628.833,59.72667,      -8.33026
629.346,59.77833,      -8.33252
629.861,59.83000,      -8.33418
630.379,59.88167,      -8.33524
630.896,59.93333,      -8.33580
631.412,59.98500,      -8.33627
631.926,60.03667,      -8.33713
632.447,60.08833,      -8.33839
632.964,60.14000,      -8.33975
633.479,60.19167,      -8.34161
633.997,60.24333,      -8.34437
634.514,60.29500,      -8.34643
635.03,60.34667,      -8.34809
635.545,60.39833,      -8.34936
636.062,60.45000,      -8.35041
636.577,60.50167,      -8.35138
637.092,60.55333,      -8.35254
637.606,60.60500,      -8.35350
638.124,60.65667,      -8.35436
638.636,60.70833,      -8.35532
639.153,60.76000,      -8.35648
639.669,60.81167,      -8.35774
640.184,60.86333,      -8.35879
640.703,60.91500,      -8.36005
641.218,60.96667,      -8.36131
641.737,61.01833,      -8.36247
642.251,61.07000,      -8.36383
642.765,61.12167,      -8.36499
643.282,61.17333,      -8.36625
643.798,61.22500,      -8.36771
644.314,61.27667,      -8.36926
644.831,61.32833,      -8.37082
645.348,61.38000,      -8.37218
645.861,61.43167,      -8.37324
646.378,61.48333,      -8.37460
646.894,61.53500,      -8.37605
647.414,61.58667,      -8.37721
647.931,61.63833,      -8.37816
648.447,61.69000,      -8.37902
648.964,61.74167,      -8.37998
649.481,61.79333,      -8.38104
649.996,61.84500,      -8.38240
650.51,61.89667,      -8.38375
651.031,61.94833,      -8.38530
651.55,62.00000,      -8.38676
652.069,62.05167,      -8.38812
652.586,62.10333,      -8.38947
653.101,62.15500,      -8.39063
653.618,62.20667,      -8.39149
654.134,62.25833,      -8.39254
654.647,62.31000,      -8.39370
655.163,62.36167,      -8.39466
655.675,62.41333,      -8.39592
656.19,62.46500,      -8.39687
656.704,62.51667,      -8.39783
657.223,62.56833,      -8.39898
657.74,62.62000,      -8.39993
658.26,62.67167,      -8.40059
658.774,62.72333,      -8.40124
659.291,62.77500,      -8.40230
659.805,62.82667,      -8.40316
660.324,62.87833,      -8.40421
660.841,62.93000,      -8.40556
661.355,62.98167,      -8.40652
661.871,63.03333,      -8.40717
662.387,63.08500,      -8.40873
662.904,63.13667,      -8.41078
663.42,63.18833,      -8.41213
663.936,63.24000,      -8.41349
664.454,63.29167,      -8.41434
664.972,63.34333,      -8.41499
665.486,63.39500,      -8.41535
666.005,63.44667,      -8.41560
666.522,63.49833,      -8.41605
667.038,63.55000,      -8.41681
667.554,63.60167,      -8.41806
668.066,63.65333,      -8.41942
668.585,63.70500,      -8.42167
669.101,63.75667,      -8.42422
669.616,63.80833,      -8.42537
670.137,63.86000,      -8.42582
670.653,63.91167,      -8.42607
671.173,63.96333,      -8.42652
671.689,64.01500,      -8.42688
672.205,64.06667,      -8.42743
672.72,64.11833,      -8.42848
673.234,64.17000,      -8.42964
673.75,64.22167,      -8.43069
674.267,64.27333,      -8.43264
674.782,64.32500,      -8.43459
675.299,64.37667,      -8.43624
675.818,64.42833,      -8.43759
676.337,64.48000,      -8.43824
676.853,64.53167,      -8.43939
677.368,64.58333,      -8.44015
677.886,64.63500,      -8.44080
678.4,64.68667,      -8.44185
678.917,64.73833,      -8.44280
679.434,64.79000,      -8.44405
679.952,64.84167,      -8.44520
680.469,64.89333,      -8.44635
680.984,64.94500,      -8.44710
681.502,64.99667,      -8.44745
682.022,65.04833,      -8.44790
682.537,65.10000,      -8.44865
683.051,65.15167,      -8.44961
683.568,65.20333,      -8.45056
684.087,65.25500,      -8.45140
684.606,65.30667,      -8.45215
685.127,65.35833,      -8.45260
685.645,65.41000,      -8.45295
686.163,65.46167,      -8.45340
686.68,65.51333,      -8.45395
687.192,65.56500,      -8.45460
687.708,65.61667,      -8.45545
688.22,65.66833,      -8.45650
688.737,65.72000,      -8.45745
689.252,65.77167,      -8.45840
689.77,65.82333,      -8.45935
690.291,65.87500,      -8.46039
690.807,65.92667,      -8.46185
691.321,65.97833,      -8.46410
691.836,66.03000,      -8.46615
692.351,66.08167,      -8.46860
692.869,66.13333,      -8.46974
693.387,66.18500,      -8.47009
693.899,66.23667,      -8.47014
694.421,66.28833,      -8.47028
694.94,66.34000,      -8.47023
695.455,66.39167,      -8.47068
695.974,66.44333,      -8.47143
696.491,66.49500,      -8.47268
697.01,66.54667,      -8.47392
697.526,66.59833,      -8.47497
698.041,66.65000,      -8.47592
698.556,66.70167,      -8.47717
699.073,66.75333,      -8.47812
699.588,66.80500,      -8.47877
700.104,66.85667,      -8.47932
700.622,66.90833,      -8.48016
701.14,66.96000,      -8.48121
701.658,67.01167,      -8.48206
702.17,67.06333,      -8.48321
702.688,67.11500,      -8.48435
703.206,67.16667,      -8.48520
703.719,67.21833,      -8.48625
704.238,67.27000,      -8.48700
704.756,67.32167,      -8.48784
705.275,67.37333,      -8.48849
705.792,67.42500,      -8.48904
706.309,67.47667,      -8.48968
706.827,67.52833,      -8.49053
707.342,67.58000,      -8.49118
707.859,67.63167,      -8.49183
708.376,67.68333,      -8.49268
708.894,67.73500,      -8.49322
709.412,67.78667,      -8.49357
709.931,67.83833,      -8.49382
710.445,67.89000,      -8.49517
710.958,67.94167,      -8.49632
711.475,67.99333,      -8.49726
711.989,68.04500,      -8.49821
712.508,68.09667,      -8.49906
713.02,68.14833,      -8.49991
713.538,68.20000,      -8.50066
714.047,68.25167,      -8.50121
714.567,68.30333,      -8.50205
715.084,68.35500,      -8.50320
715.605,68.40667,      -8.50414
716.12,68.45833,      -8.50489
716.637,68.51000,      -8.50543
717.152,68.56167,      -8.50598
717.667,68.61333,      -8.50663
718.187,68.66500,      -8.50718
718.7,68.71667,      -8.50763
719.218,68.76833,      -8.50817
719.73,68.82000,      -8.50902
720.249,68.87167,      -8.50987
720.765,68.92333,      -8.51071
721.281,68.97500,      -8.51176
721.797,69.02667,      -8.51231
722.312,69.07833,      -8.51295
722.828,69.13000,      -8.51350
723.345,69.18167,      -8.51415
723.861,69.23333,      -8.51469
724.378,69.28500,      -8.51514
724.89,69.33667,      -8.51579
725.408,69.38833,      -8.51673
725.924,69.44000,      -8.51758
726.441,69.49167,      -8.51842
726.956,69.54333,      -8.51937
727.471,69.59500,      -8.52012
727.988,69.64667,      -8.52096
728.504,69.69833,      -8.52161
729.024,69.75000,      -8.52215
729.541,69.80167,      -8.52280
730.061,69.85333,      -8.52334
730.573,69.90500,      -8.52399
731.09,69.95667,      -8.52443
731.609,70.00833,      -8.52498
732.124,70.06000,      -8.52572
732.64,70.11167,      -8.52667
733.157,70.16333,      -8.52771
733.675,70.21500,      -8.52866
734.189,70.26667,      -8.52960
734.702,70.31833,      -8.53055
735.222,70.37000,      -8.53139
735.74,70.42167,      -8.53244
736.256,70.47333,      -8.53308
736.775,70.52500,      -8.53372
737.289,70.57667,      -8.53457
737.804,70.62833,      -8.53511
738.323,70.68000,      -8.53586
738.837,70.73167,      -8.53650
739.356,70.78333,      -8.53694
739.87,70.83500,      -8.53749
740.386,70.88667,      -8.53803
740.905,70.93833,      -8.53847
741.42,70.99000,      -8.53882
741.935,71.04167,      -8.53966
742.451,71.09333,      -8.54050
742.969,71.14500,      -8.54125
743.489,71.19667,      -8.54189
744.005,71.24833,      -8.54273
744.522,71.30000,      -8.54337
745.037,71.35167,      -8.54371
745.558,71.40333,      -8.54415
746.074,71.45500,      -8.54440
746.586,71.50667,      -8.54474
747.103,71.55833,      -8.54478
747.618,71.61000,      -8.54683
748.13,71.66167,      -8.54877
748.647,71.71333,      -8.54981
749.162,71.76500,      -8.55055
749.677,71.81667,      -8.55089
750.194,71.86833,      -8.55123
750.714,71.92000,      -8.55157
751.23,71.97167,      -8.55191
751.747,72.02333,      -8.55255
752.264,72.07500,      -8.55299
752.781,72.12667,      -8.55333
753.299,72.17833,      -8.55387
753.816,72.23000,      -8.55461
754.326,72.28167,      -8.55546
754.845,72.33333,      -8.55579
755.359,72.38500,      -8.55603
755.878,72.43667,      -8.55707
756.396,72.48833,      -8.55821
756.911,72.54000,      -8.55895
757.427,72.59167,      -8.55949
757.951,72.64333,      -8.55982
758.466,72.69500,      -8.56016
758.981,72.74667,      -8.56060
759.49,72.79833,      -8.56134
760.008,72.85000,      -8.56218
760.522,72.90167,      -8.56332
761.04,72.95333,      -8.56415
761.559,73.00500,      -8.56499
762.082,73.05667,      -8.56552
762.596,73.10833,      -8.56616
763.114,73.16000,      -8.56670
763.628,73.21167,      -8.56704
764.139,73.26333,      -8.56748
764.657,73.31500,      -8.56781
765.171,73.36667,      -8.56835
765.69,73.41833,      -8.56878
766.209,73.47000,      -8.56922
766.722,73.52167,      -8.56955
767.238,73.57333,      -8.56979
767.754,73.62500,      -8.57012
768.267,73.67667,      -8.57046
768.784,73.72833,      -8.57100
769.301,73.78000,      -8.57173
769.816,73.83167,      -8.57216
770.333,73.88333,      -8.57280
770.852,73.93500,      -8.57353
771.368,73.98667,      -8.57416
771.891,74.03833,      -8.57499
772.407,74.09000,      -8.57573
772.921,74.14167,      -8.57636
773.437,74.19333,      -8.57699
773.952,74.24500,      -8.57783
774.47,74.29667,      -8.57886
774.985,74.34833,      -8.57969
775.502,74.40000,      -8.57982
776.02,74.45167,      -8.58035
776.534,74.50333,      -8.58069
777.048,74.55500,      -8.58112
777.563,74.60667,      -8.58165
778.078,74.65833,      -8.58268
778.596,74.71000,      -8.58401
779.113,74.76167,      -8.58514
779.633,74.81333,      -8.58597
780.152,74.86500,      -8.58660
780.669,74.91667,      -8.58682
781.187,74.96833,      -8.58695
781.704,75.02000,      -8.58728
782.221,75.07167,      -8.58781
782.738,75.12333,      -8.58824
783.251,75.17500,      -8.58867
783.767,75.22667,      -8.58900
784.283,75.27833,      -8.58943
784.801,75.33000,      -8.58995
785.318,75.38167,      -8.59058
785.833,75.43333,      -8.59111
786.352,75.48500,      -8.59163
786.869,75.53667,      -8.59206
787.386,75.58833,      -8.59259
787.905,75.64000,      -8.59301
788.423,75.69167,      -8.59343
788.939,75.74333,      -8.59416
789.453,75.79500,      -8.59499
789.971,75.84667,      -8.59581
790.491,75.89833,      -8.59613
791.008,75.95000,      -8.59656
791.524,76.00167,      -8.59698
792.045,76.05333,      -8.59760
792.555,76.10500,      -8.59813
793.07,76.15667,      -8.59916
793.584,76.20833,      -8.59998
794.102,76.26000,      -8.60050
794.622,76.31167,      -8.60122
795.14,76.36333,      -8.60194
795.657,76.41500,      -8.60256
796.177,76.46667,      -8.60328
796.696,76.51833,      -8.60370
797.214,76.57000,      -8.60432
797.735,76.62167,      -8.60514
798.25,76.67333,      -8.60557
798.765,76.72500,      -8.60619
799.285,76.77667,      -8.60701
799.5,76.79833,      -8.60713