File: data-raw/TGA/Z_TGA.csv
#EXPORTTYPE:                 ,DATA SINGLE
#FILE:                       ,Z.ngb-st9
#FORMAT:                     ,NETZSCH5
#FTYPE:                      ,ANSI
#IDENTITY:                   ,Saras
#DECIMAL:                    ,POINT
#SEPARATOR:                  ,COMMA
#MTYPE:                      ,TG
#INSTRUMENT:                 ,NETZSCH TG 209F1 Libra
#PROJECT:                    ,IL
#DATE/TIME:                  ,23/03/2017 12:52:54 PM (UTC+11)
#CORR. FILE:                 ,
#TEMPCAL:                    ,TCALZERO.TCX
#LABORATORY:                 ,Capture Lab
#OPERATOR:                   ,NJN
#REMARK:                     ,Training run
#SAMPLE:                     ,Z
#SAMPLE MASS /mg:            ,15.9042
#MATERIAL:                   ,zeolite
#TYPE OF CRUCIBLE:           ,Al2O3
#SAMPLE CRUCIBLE MASS /mg:   ,311.1594
#REFERENCE CRUCIBLE MASS /mg:,
#M.RANGE /mg:                ,2000
#CORR. CODE:                 ,090
#RANGE:                      ,32°C/10.0(K/min)/800°C
#SEGMENT:                    ,S1/1
#SEG. 1:                     ,32°C/10.0(K/min)/800°C

##Temp./°C,Time/min,Mass loss/mg
 31.42500, 0.00000,-3.791955e-003
 31.43700, 0.05167,-5.873778e-003
 31.50000, 0.10333,-7.595814e-003
 31.82600, 0.15500,-6.826039e-003
 32.22900, 0.20667,-6.541158e-003
 32.60200, 0.25833,-8.055731e-003
 32.98400, 0.31000,-9.679715e-003
 33.41500, 0.36167,-1.138025e-002
 33.89300, 0.41333,-1.305660e-002
 34.39700, 0.46500,-1.499888e-002
 34.93100, 0.51667,-1.695070e-002
 35.48600, 0.56833,-1.962267e-002
 36.07200, 0.62000,-2.292278e-002
 36.67800, 0.67167,-2.660625e-002
 37.29900, 0.72333,-3.018406e-002
 37.93700, 0.77500,-3.412045e-002
 38.58300, 0.82667,-3.765861e-002
 39.23500, 0.87833,-4.120323e-002
 39.89400, 0.93000,-4.529581e-002
 40.55300, 0.98167,-4.969896e-002
 41.20800, 1.03333,-5.424249e-002
 41.85900, 1.08500,-5.860226e-002
 42.50700, 1.13667,-6.344374e-002
 43.14700, 1.18833,-6.831603e-002
 43.77900, 1.24000,-7.376002e-002
 44.40000, 1.29167,-7.955882e-002
 45.01300, 1.34333,-8.534471e-002
 45.61800, 1.39500,-9.182732e-002
 46.20400, 1.44667,-9.775739e-002
 46.78500, 1.49833,      -0.10400
 47.35300, 1.55000,      -0.10984
 47.91000, 1.60167,      -0.11656
 48.45900, 1.65333,      -0.12320
 48.99500, 1.70500,      -0.13023
 49.53000, 1.75667,      -0.13733
 50.05300, 1.80833,      -0.14430
 50.56800, 1.86000,      -0.15237
 51.08700, 1.91167,      -0.15954
 51.59300, 1.96333,      -0.16723
 52.09500, 2.01500,      -0.17447
 52.59100, 2.06667,      -0.18231
 53.09000, 2.11833,      -0.19018
 53.58600, 2.17000,      -0.19867
 54.08500, 2.22167,      -0.20690
 54.57800, 2.27333,      -0.21539
 55.07100, 2.32500,      -0.22391
 55.56900, 2.37667,      -0.23227
 56.06200, 2.42833,      -0.24128
 56.56400, 2.48000,      -0.24956
 57.06300, 2.53167,      -0.25891
 57.56000, 2.58333,      -0.26755
 58.06800, 2.63500,      -0.27715
 58.56900, 2.68667,      -0.28669
 59.07700, 2.73833,      -0.29526
 59.58700, 2.79000,      -0.30513
 60.09700, 2.84167,      -0.31419
 60.60400, 2.89333,      -0.32403
 61.12100, 2.94500,      -0.33342
 61.63600, 2.99667,      -0.34336
 62.15200, 3.04833,      -0.35351
 62.66900, 3.10000,      -0.36305
 63.18500, 3.15167,      -0.37319
 63.71200, 3.20333,      -0.38237
 64.22700, 3.25500,      -0.39260
 64.74900, 3.30667,      -0.40193
 65.26900, 3.35833,      -0.41184
 65.79300, 3.41000,      -0.42169
 66.31600, 3.46167,      -0.43172
 66.83500, 3.51333,      -0.44093
 67.35900, 3.56500,      -0.45125
 67.88200, 3.61667,      -0.46126
 68.40000, 3.66833,      -0.47056
 68.92300, 3.72000,      -0.48048
 69.44300, 3.77167,      -0.48988
 69.96400, 3.82333,      -0.50001
 70.48400, 3.87500,      -0.50951
 71.01000, 3.92667,      -0.51944
 71.52900, 3.97833,      -0.52833
 72.05100, 4.03000,      -0.53796
 72.57300, 4.08167,      -0.54766
 73.09400, 4.13333,      -0.55666
 73.61700, 4.18500,      -0.56648
 74.13700, 4.23667,      -0.57538
 74.65800, 4.28833,      -0.58497
 75.17800, 4.34000,      -0.59369
 75.69500, 4.39167,      -0.60267
 76.21200, 4.44333,      -0.61134
 76.73100, 4.49500,      -0.62035
 77.24900, 4.54667,      -0.62905
 77.76500, 4.59833,      -0.63695
 78.28400, 4.65000,      -0.64596
 78.80000, 4.70167,      -0.65403
 79.32200, 4.75333,      -0.66185
 79.83700, 4.80500,      -0.66944
 80.35300, 4.85667,      -0.67744
 80.86900, 4.90833,      -0.68463
 81.38800, 4.96000,      -0.69244
 81.90400, 5.01167,      -0.70034
 82.42000, 5.06333,      -0.70742
 82.93700, 5.11500,      -0.71483
 83.45400, 5.16667,      -0.72164
 83.97100, 5.21833,      -0.72882
 84.48900, 5.27000,      -0.73503
 85.00500, 5.32167,      -0.74152
 85.52200, 5.37333,      -0.74742
 86.03800, 5.42500,      -0.75411
 86.55500, 5.47667,      -0.76089
 87.06800, 5.52833,      -0.76648
 87.58300, 5.58000,      -0.77247
 88.10000, 5.63167,      -0.77777
 88.61600, 5.68333,      -0.78346
 89.13400, 5.73500,      -0.78886
 89.65100, 5.78667,      -0.79436
 90.16600, 5.83833,      -0.79955
 90.68200, 5.89000,      -0.80475
 91.20300, 5.94167,      -0.80986
 91.72600, 5.99333,      -0.81437
 92.24300, 6.04500,      -0.81896
 92.76300, 6.09667,      -0.82355
 93.28100, 6.14833,      -0.82793
 93.79900, 6.20000,      -0.83183
 94.31800, 6.25167,      -0.83592
 94.83700, 6.30333,      -0.83991
 95.35400, 6.35500,      -0.84399
 95.87300, 6.40667,      -0.84769
 96.39100, 6.45833,      -0.85118
 96.90900, 6.51000,      -0.85477
 97.42400, 6.56167,      -0.85814
 97.93700, 6.61333,      -0.86143
 98.45500, 6.66500,      -0.86463
 98.97100, 6.71667,      -0.86761
 99.48500, 6.76833,      -0.87039
100.002, 6.82000,      -0.87339
100.517, 6.87167,      -0.87610
101.034, 6.92333,      -0.87872
101.554, 6.97500,      -0.88175
102.068, 7.02667,      -0.88416
102.583, 7.07833,      -0.88667
103.097, 7.13000,      -0.88877
103.614, 7.18167,      -0.89088
104.133, 7.23333,      -0.89279
104.649, 7.28500,      -0.89451
105.166, 7.33667,      -0.89621
105.679, 7.38833,      -0.89780
106.199, 7.44000,      -0.89922
106.718, 7.49167,      -0.90052
107.23, 7.54333,      -0.90221
107.749, 7.59500,      -0.90322
108.264, 7.64667,      -0.90451
108.779, 7.69833,      -0.90590
109.297, 7.75000,      -0.90730
109.814, 7.80167,      -0.90849
110.327, 7.85333,      -0.90967
110.839, 7.90500,      -0.91125
111.357, 7.95667,      -0.91296
111.869, 8.00833,      -0.91444
112.383, 8.06000,      -0.91572
112.902, 8.11167,      -0.91722
113.413, 8.16333,      -0.91838
113.929, 8.21500,      -0.91979
114.448, 8.26667,      -0.92088
114.962, 8.31833,      -0.92176
115.481, 8.37000,      -0.92254
115.996, 8.42167,      -0.92312
116.514, 8.47333,      -0.92370
117.03, 8.52500,      -0.92428
117.545, 8.57667,      -0.92495
118.064, 8.62833,      -0.92554
118.581, 8.68000,      -0.92611
119.098, 8.73167,      -0.92669
119.61, 8.78333,      -0.92744
120.128, 8.83500,      -0.92832
120.645, 8.88667,      -0.92889
121.16, 8.93833,      -0.92936
121.677, 8.99000,      -0.92973
122.193, 9.04167,      -0.92990
122.71, 9.09333,      -0.93027
123.223, 9.14500,      -0.93062
123.741, 9.19667,      -0.93130
124.259, 9.24833,      -0.93207
124.777, 9.30000,      -0.93263
125.293, 9.35167,      -0.93309
125.81, 9.40333,      -0.93366
126.326, 9.45500,      -0.93401
126.844, 9.50667,      -0.93438
127.359, 9.55833,      -0.93463
127.878, 9.61000,      -0.93529
128.395, 9.66167,      -0.93635
128.908, 9.71333,      -0.93719
129.425, 9.76500,      -0.93786
129.942, 9.81667,      -0.93831
130.461, 9.86833,      -0.93878
130.979, 9.92000,      -0.93904
131.497, 9.97167,      -0.93959
132.012,10.02333,      -0.93993
132.529,10.07500,      -0.94017
133.041,10.12667,      -0.94062
133.561,10.17833,      -0.94098
134.078,10.23000,      -0.94144
134.597,10.28167,      -0.94188
135.115,10.33333,      -0.94223
135.632,10.38500,      -0.94267
136.147,10.43667,      -0.94321
136.664,10.48833,      -0.94367
137.182,10.54000,      -0.94411
137.697,10.59167,      -0.94465
138.218,10.64333,      -0.94510
138.734,10.69500,      -0.94584
139.247,10.74667,      -0.94628
139.768,10.79833,      -0.94673
140.284,10.85000,      -0.94717
140.802,10.90167,      -0.94771
141.317,10.95333,      -0.94845
141.831,11.00500,      -0.94898
142.35,11.05667,      -0.94963
142.863,11.10833,      -0.95006
143.378,11.16000,      -0.95070
143.896,11.21167,      -0.95124
144.417,11.26333,      -0.95209
144.932,11.31500,      -0.95282
145.45,11.36667,      -0.95366
145.968,11.41833,      -0.95439
146.483,11.47000,      -0.95492
147.001,11.52167,      -0.95576
147.516,11.57333,      -0.95649
148.033,11.62500,      -0.95763
148.55,11.67667,      -0.95836
149.064,11.72833,      -0.95949
149.583,11.78000,      -0.96053
150.101,11.83167,      -0.96146
150.616,11.88333,      -0.96209
151.133,11.93500,      -0.96322
151.651,11.98667,      -0.96426
152.167,12.03833,      -0.96509
152.683,12.09000,      -0.96602
153.202,12.14167,      -0.96675
153.717,12.19333,      -0.96788
154.236,12.24500,      -0.96901
154.75,12.29667,      -0.97024
155.269,12.34833,      -0.97147
155.786,12.40000,      -0.97260
156.302,12.45167,      -0.97383
156.82,12.50333,      -0.97525
157.335,12.55500,      -0.97648
157.85,12.60667,      -0.97741
158.369,12.65833,      -0.97844
158.888,12.71000,      -0.97977
159.404,12.76167,      -0.98080
159.917,12.81333,      -0.98182
160.433,12.86500,      -0.98364
160.953,12.91667,      -0.98608
161.469,12.96833,      -0.98850
161.981,13.02000,      -0.99072
162.502,13.07167,      -0.99246
163.018,13.12333,      -0.99408
163.535,13.17500,      -0.99561
164.053,13.22667,      -0.99694
164.568,13.27833,      -0.99837
165.087,13.33000,      -0.99960
165.604,13.38167,      -1.00072
166.124,13.43333,      -1.00145
166.642,13.48500,      -1.00268
167.161,13.53667,      -1.00380
167.674,13.58833,      -1.00552
168.194,13.64000,      -1.00755
168.707,13.69167,      -1.00977
169.222,13.74333,      -1.01189
169.741,13.79500,      -1.01362
170.255,13.84667,      -1.01485
170.774,13.89833,      -1.01618
171.294,13.95000,      -1.01811
171.806,14.00167,      -1.02062
172.318,14.05333,      -1.02344
172.837,14.10500,      -1.02588
173.351,14.15667,      -1.02769
173.868,14.20833,      -1.02973
174.381,14.26000,      -1.03176
174.898,14.31167,      -1.03448
175.412,14.36333,      -1.03691
175.93,14.41500,      -1.03944
176.446,14.46667,      -1.04167
176.963,14.51833,      -1.04370
177.481,14.57000,      -1.04523
177.998,14.62167,      -1.04746
178.513,14.67333,      -1.05038
179.032,14.72500,      -1.05312
179.548,14.77667,      -1.05584
180.066,14.82833,      -1.05817
180.58,14.88000,      -1.06060
181.096,14.93167,      -1.06272
181.616,14.98333,      -1.06506
182.132,15.03500,      -1.06739
182.648,15.08667,      -1.07012
183.169,15.13833,      -1.07295
183.687,15.19000,      -1.07638
184.204,15.24167,      -1.07981
184.72,15.29333,      -1.08254
185.236,15.34500,      -1.08567
185.754,15.39667,      -1.08820
186.272,15.44833,      -1.09094
186.79,15.50000,      -1.09347
187.309,15.55167,      -1.09680
187.826,15.60333,      -1.10064
188.342,15.65500,      -1.10417
188.861,15.70667,      -1.10820
189.376,15.75833,      -1.11164
189.895,15.81000,      -1.11517
190.408,15.86167,      -1.11840
190.926,15.91333,      -1.12204
191.443,15.96500,      -1.12578
191.959,16.01667,      -1.12971
192.475,16.06833,      -1.13385
192.991,16.12000,      -1.13759
193.508,16.17167,      -1.14163
194.027,16.22333,      -1.14537
194.54,16.27500,      -1.14901
195.056,16.32667,      -1.15294
195.576,16.37833,      -1.15729
196.088,16.43000,      -1.16122
196.606,16.48167,      -1.16556
197.124,16.53333,      -1.17001
197.641,16.58500,      -1.17405
198.155,16.63667,      -1.17889
198.672,16.68833,      -1.18384
199.185,16.74000,      -1.18888
199.703,16.79167,      -1.19353
200.219,16.84333,      -1.19877
200.735,16.89500,      -1.20342
201.252,16.94667,      -1.20856
201.767,16.99833,      -1.21361
202.286,17.05000,      -1.21806
202.804,17.10167,      -1.22291
203.32,17.15333,      -1.22765
203.835,17.20500,      -1.23300
204.357,17.25667,      -1.23825
204.873,17.30833,      -1.24349
205.388,17.36000,      -1.24864
205.907,17.41167,      -1.25419
206.424,17.46333,      -1.26034
206.942,17.51500,      -1.26578
207.459,17.56667,      -1.27163
207.976,17.61833,      -1.27718
208.494,17.67000,      -1.28313
209.012,17.72167,      -1.28887
209.525,17.77333,      -1.29482
210.044,17.82500,      -1.30087
210.56,17.87667,      -1.30722
211.077,17.92833,      -1.31357
211.592,17.98000,      -1.31981
212.107,18.03167,      -1.32626
212.621,18.08333,      -1.33241
213.141,18.13500,      -1.33886
213.656,18.18667,      -1.34491
214.173,18.23833,      -1.35176
214.689,18.29000,      -1.35791
215.209,18.34167,      -1.36516
215.725,18.39333,      -1.37211
216.241,18.44500,      -1.37906
216.76,18.49667,      -1.38621
217.274,18.54833,      -1.39316
217.791,18.60000,      -1.40051
218.308,18.65167,      -1.40796
218.82,18.70333,      -1.41590
219.339,18.75500,      -1.42346
219.852,18.80667,      -1.43120
220.373,18.85833,      -1.43946
220.884,18.91000,      -1.44771
221.402,18.96167,      -1.45626
221.919,19.01333,      -1.46431
222.435,19.06500,      -1.47276
222.951,19.11667,      -1.48141
223.468,19.16833,      -1.49036
223.985,19.22000,      -1.49931
224.503,19.27167,      -1.50887
225.02,19.32333,      -1.51852
225.538,19.37500,      -1.52817
226.055,19.42667,      -1.53822
226.575,19.47833,      -1.54817
227.093,19.53000,      -1.55912
227.61,19.58167,      -1.56907
228.124,19.63333,      -1.58002
228.643,19.68500,      -1.59037
229.157,19.73667,      -1.60233
229.676,19.78833,      -1.61438
230.19,19.84000,      -1.62603
230.709,19.89167,      -1.63888
231.225,19.94333,      -1.65083
231.743,19.99500,      -1.66468
232.257,20.04667,      -1.69114
232.773,20.09833,      -1.70118
233.28,20.15000,      -1.71193
233.8,20.20167,      -1.72489
234.318,20.25333,      -1.75214
234.836,20.30500,      -1.76450
235.353,20.35667,      -1.77585
235.871,20.40833,      -1.79990
236.384,20.46000,      -1.81785
236.9,20.51167,      -1.83480
237.416,20.56333,      -1.85335
237.937,20.61500,      -1.87071
238.456,20.66667,      -1.89056
238.971,20.71833,      -1.91101
239.487,20.77000,      -1.93036
240.003,20.82167,      -1.95152
240.52,20.87333,      -1.97227
241.039,20.92500,      -1.99522
241.557,20.97667,      -2.01677
242.074,21.02833,      -2.04043
242.589,21.08000,      -2.06358
243.106,21.13167,      -2.08813
243.623,21.18333,      -2.11368
244.143,21.23500,      -2.13793
244.656,21.28667,      -2.16419
245.175,21.33833,      -2.19114
245.69,21.39000,      -2.22009
246.203,21.44167,      -2.24754
246.721,21.49333,      -2.27589
247.24,21.54500,      -2.30415
247.759,21.59667,      -2.33410
248.276,21.64833,      -2.36565
248.79,21.70000,      -2.39570
249.307,21.75167,      -2.42906
249.82,21.80333,      -2.45970
250.336,21.85500,      -2.49306
250.853,21.90667,      -2.52491
251.37,21.95833,      -2.55976
251.886,22.01000,      -2.59231
252.404,22.06167,      -2.62787
252.919,22.11333,      -2.66322
253.437,22.16500,      -2.69757
253.955,22.21667,      -2.73432
254.473,22.26833,      -2.77007
254.99,22.32000,      -2.80743
255.506,22.37167,      -2.84348
256.026,22.42333,      -2.88233
256.54,22.47500,      -2.91888
257.055,22.52667,      -2.95773
257.575,22.57833,      -2.99698
258.085,22.63000,      -3.03483
258.6,22.68167,      -3.07588
259.115,22.73333,      -3.11364
259.631,22.78500,      -3.15379
260.149,22.83667,      -3.19144
260.667,22.88833,      -3.23169
261.183,22.94000,      -3.26994
261.701,22.99167,      -3.31009
262.217,23.04333,      -3.35104
262.735,23.09500,      -3.38870
263.25,23.14667,      -3.42885
263.768,23.19833,      -3.46670
264.285,23.25000,      -3.50705
264.801,23.30167,      -3.54530
265.319,23.35333,      -3.58615
265.833,23.40500,      -3.62740
266.346,23.45667,      -3.66585
266.861,23.50833,      -3.70710
267.376,23.56000,      -3.74525
267.891,23.61167,      -3.78540
268.406,23.66333,      -3.82275
268.922,23.71500,      -3.86190
269.441,23.76667,      -3.89925
269.957,23.81833,      -3.93950
270.476,23.87000,      -3.97655
270.992,23.92167,      -4.01590
271.507,23.97333,      -4.05514
272.027,24.02500,      -4.09149
272.542,24.07667,      -4.12874
273.058,24.12833,      -4.16379
273.576,24.18000,      -4.20124
274.097,24.23167,      -4.23659
274.608,24.28333,      -4.27424
275.125,24.33500,      -4.31009
275.639,24.38667,      -4.34873
276.157,24.43833,      -4.38558
276.67,24.49000,      -4.42053
277.187,24.54167,      -4.45648
277.704,24.59333,      -4.48993
278.215,24.64500,      -4.52627
278.734,24.69667,      -4.55962
279.254,24.74833,      -4.59517
279.775,24.80000,      -4.62752
280.294,24.85167,      -4.66296
280.811,24.90333,      -4.69751
281.36,24.95500,      -4.73016
281.873,25.00667,      -4.76500
282.384,25.05833,      -4.79785
282.895,25.11000,      -4.83149
283.401,25.16167,      -4.86234
283.908,25.21333,      -4.89559
284.422,25.26500,      -4.92813
284.932,25.31667,      -4.95878
285.45,25.36833,      -4.99213
285.965,25.42000,      -5.02337
286.482,25.47167,      -5.05662
286.997,25.52333,      -5.08756
287.512,25.57500,      -5.12171
288.027,25.62667,      -5.15285
288.543,25.67833,      -5.18580
289.06,25.73000,      -5.21654
289.579,25.78167,      -5.24928
290.094,25.83333,      -5.28193
290.609,25.88500,      -5.31237
291.126,25.93667,      -5.34492
291.643,25.98833,      -5.37586
292.156,26.04000,      -5.41000
292.675,26.09167,      -5.44135
293.191,26.14333,      -5.47469
293.707,26.19500,      -5.50633
294.221,26.24667,      -5.54097
294.738,26.29833,      -5.57412
295.254,26.35000,      -5.60496
295.771,26.40167,      -5.63840
296.293,26.45333,      -5.67044
296.813,26.50500,      -5.70528
297.332,26.55667,      -5.73842
297.847,26.60833,      -5.77476
298.363,26.66000,      -5.81171
298.877,26.71167,      -5.84655
299.392,26.76333,      -5.88339
299.908,26.81500,      -5.91813
300.423,26.86667,      -5.95637
300.943,26.91833,      -5.99201
301.456,26.97000,      -6.03065
301.974,27.02167,      -6.06769
302.493,27.07333,      -6.10813
303.012,27.12500,      -6.14927
303.529,27.17667,      -6.18801
304.049,27.22833,      -6.22995
304.565,27.28000,      -6.27009
305.081,27.33167,      -6.31473
305.6,27.38333,      -6.35697
306.112,27.43500,      -6.40231
306.63,27.48667,      -6.45025
307.147,27.53833,      -6.49719
307.665,27.59000,      -6.54553
308.175,27.64167,      -6.59067
308.686,27.69333,      -6.63981
309.205,27.74500,      -6.68775
309.723,27.79667,      -6.73989
310.238,27.84833,      -6.79093
310.757,27.90000,      -6.84567
311.275,27.95167,      -6.89851
311.795,28.00333,      -6.95725
312.313,28.05500,      -7.01619
312.83,28.10667,      -7.07363
313.347,28.15833,      -7.13527
313.866,28.21000,      -7.19291
314.383,28.26167,      -7.25495
314.897,28.31333,      -7.31419
315.417,28.36500,      -7.37813
315.932,28.41667,      -7.43717
316.451,28.46833,      -7.50061
316.972,28.52000,      -7.56645
317.49,28.57167,      -7.63059
318.026,28.62333,      -7.70082
318.543,28.67500,      -7.76546
319.056,28.72667,      -7.83281
319.566,28.77833,      -7.89585
320.077,28.83000,      -7.96299
320.59,28.88167,      -8.02403
321.106,28.93333,      -8.09097
321.621,28.98500,      -8.15601
322.137,29.03667,      -8.21705
322.652,29.08833,      -8.28079
323.172,29.14000,      -8.34013
323.685,29.19167,      -8.40227
324.199,29.24333,      -8.45921
324.718,29.29500,      -8.51775
325.234,29.34667,      -8.57239
325.748,29.39833,      -8.62863
326.263,29.45000,      -8.68407
326.78,29.50167,      -8.73400
327.298,29.55333,      -8.78824
327.812,29.60500,      -8.83659
328.325,29.65667,      -8.88563
328.839,29.70833,      -8.92897
329.354,29.76000,      -8.97290
329.872,29.81167,      -9.01234
330.388,29.86333,      -9.05298
330.904,29.91500,      -9.09182
331.425,29.96667,      -9.12726
331.937,30.01833,      -9.16440
332.456,30.07000,      -9.19884
332.966,30.12167,      -9.23418
333.481,30.17333,      -9.26592
333.998,30.22500,      -9.29766
334.51,30.27667,      -9.32580
335.028,30.32833,      -9.35293
335.542,30.38000,      -9.37947
336.061,30.43167,      -9.40421
336.579,30.48333,      -9.42865
337.094,30.53500,      -9.45179
337.61,30.58667,      -9.47512
338.124,30.63833,      -9.49546
338.641,30.69000,      -9.51690
339.153,30.74167,      -9.53554
339.673,30.79333,      -9.55518
340.192,30.84500,      -9.57491
340.709,30.89667,      -9.59235
341.226,30.94833,      -9.60979
341.744,31.00000,      -9.62593
342.259,31.05167,      -9.63747
342.774,31.10333,      -9.64880
343.292,31.15500,      -9.66204
343.811,31.20667,      -9.68628
344.327,31.25833,      -9.69561
344.843,31.31000,      -9.70675
345.358,31.36167,      -9.71829
345.879,31.41333,      -9.73142
346.396,31.46500,      -9.75446
346.914,31.51667,      -9.76390
347.427,31.56833,      -9.77384
347.944,31.62000,      -9.78467
348.459,31.67167,      -9.79611
348.974,31.72333,      -9.80885
349.487,31.77500,      -9.82109
350.006,31.82667,      -9.83242
350.523,31.87833,      -9.84436
351.038,31.93000,      -9.85499
351.554,31.98167,      -9.86643
352.072,32.03333,      -9.87716
352.589,32.08500,      -9.88910
353.105,32.13667,      -9.89974
353.621,32.18833,      -9.91127
354.138,32.24000,      -9.92241
354.653,32.29167,      -9.93214
355.169,32.34333,      -9.94248
355.687,32.39500,      -9.95231
356.201,32.44667,      -9.96265
356.717,32.49833,      -9.97228
357.237,32.55000,      -9.98272
357.753,32.60167,      -9.99225
358.27,32.65333,     -10.00209
358.786,32.70500,     -10.01162
359.305,32.75667,     -10.02075
359.819,32.80833,     -10.02999
360.336,32.86000,     -10.03862
360.855,32.91167,     -10.04776
361.37,32.96333,     -10.05669
361.886,33.01500,     -10.06642
362.403,33.06667,     -10.07496
362.921,33.11833,     -10.08409
363.434,33.17000,     -10.09333
363.951,33.22167,     -10.10086
364.466,33.27333,     -10.10929
364.987,33.32500,     -10.11712
365.505,33.37667,     -10.12566
366.02,33.42833,     -10.13369
366.534,33.48000,     -10.14202
367.053,33.53167,     -10.14955
367.571,33.58333,     -10.15738
368.086,33.63500,     -10.16582
368.601,33.68667,     -10.17325
369.118,33.73833,     -10.18158
369.633,33.79000,     -10.18921
370.15,33.84167,     -10.19794
370.666,33.89333,     -10.20538
371.182,33.94500,     -10.21271
371.696,33.99667,     -10.21964
372.214,34.04833,     -10.22667
372.732,34.10000,     -10.23410
373.245,34.15167,     -10.24123
373.764,34.20333,     -10.24846
374.279,34.25500,     -10.25559
374.798,34.30667,     -10.26302
375.313,34.35833,     -10.26995
375.828,34.41000,     -10.27708
376.345,34.46167,     -10.28371
376.861,34.51333,     -10.29094
377.378,34.56500,     -10.29787
377.893,34.61667,     -10.30410
378.408,34.66833,     -10.31123
378.925,34.72000,     -10.31736
379.439,34.77167,     -10.32389
379.956,34.82333,     -10.32981
380.474,34.87500,     -10.33654
380.99,34.92667,     -10.34297
381.509,34.97833,     -10.34940
382.023,35.03000,     -10.35572
382.54,35.08167,     -10.36195
383.056,35.13333,     -10.36918
383.57,35.18500,     -10.37551
384.087,35.23667,     -10.38143
384.604,35.28833,     -10.38736
385.123,35.34000,     -10.39378
385.638,35.39167,     -10.40001
386.157,35.44333,     -10.40624
386.672,35.49500,     -10.41266
387.185,35.54667,     -10.41959
387.699,35.59833,     -10.42702
388.215,35.65000,     -10.43435
388.729,35.70167,     -10.44147
389.244,35.75333,     -10.44740
389.761,35.80500,     -10.45332
390.279,35.85667,     -10.45834
390.797,35.90833,     -10.46346
391.315,35.96000,     -10.46869
391.832,36.01167,     -10.47351
392.35,36.06333,     -10.47874
392.867,36.11500,     -10.48386
393.384,36.16667,     -10.49008
393.9,36.21833,     -10.49581
394.416,36.27000,     -10.50303
394.929,36.32167,     -10.51036
395.446,36.37333,     -10.51678
395.963,36.42500,     -10.52370
396.479,36.47667,     -10.52942
396.996,36.52833,     -10.53554
397.514,36.58000,     -10.54096
398.028,36.63167,     -10.54689
398.544,36.68333,     -10.55231
399.061,36.73500,     -10.55783
399.578,36.78667,     -10.56295
400.094,36.83833,     -10.56857
400.613,36.89000,     -10.57429
401.129,36.94167,     -10.58011
401.643,36.99333,     -10.58643
402.16,37.04500,     -10.59225
402.674,37.09667,     -10.59817
403.189,37.14833,     -10.60419
403.705,37.20000,     -10.60981
404.223,37.25167,     -10.61513
404.74,37.30333,     -10.62155
405.254,37.35500,     -10.62757
405.768,37.40667,     -10.63349
406.288,37.45833,     -10.63991
406.8,37.51000,     -10.64553
407.317,37.56167,     -10.65105
407.832,37.61333,     -10.65616
408.351,37.66500,     -10.66208
408.866,37.71667,     -10.66750
409.382,37.76833,     -10.67262
409.9,37.82000,     -10.67753
410.42,37.87167,     -10.68145
410.94,37.92333,     -10.68587
411.455,37.97500,     -10.69049
411.971,38.02667,     -10.69550
412.49,38.07833,     -10.70072
413.005,38.13000,     -10.70584
413.521,38.18167,     -10.71156
414.039,38.23333,     -10.71697
414.556,38.28500,     -10.72239
415.071,38.33667,     -10.72791
415.585,38.38833,     -10.73343
416.098,38.44000,     -10.73885
416.614,38.49167,     -10.74446
417.13,38.54333,     -10.74968
417.647,38.59500,     -10.75549
418.163,38.64667,     -10.76001
418.68,38.69833,     -10.76562
419.196,38.75000,     -10.77064
419.713,38.80167,     -10.77505
420.229,38.85333,     -10.77987
420.745,38.90500,     -10.78459
421.262,38.95667,     -10.79040
421.775,39.00833,     -10.79672
422.291,39.06000,     -10.80314
422.805,39.11167,     -10.80895
423.323,39.16333,     -10.81396
423.84,39.21500,     -10.81798
424.358,39.26667,     -10.82099
424.875,39.31833,     -10.82511
425.394,39.37000,     -10.82972
425.912,39.42167,     -10.83543
426.427,39.47333,     -10.83935
426.943,39.52500,     -10.84406
427.459,39.57667,     -10.85038
427.973,39.62833,     -10.85619
428.488,39.68000,     -10.86121
429.003,39.73167,     -10.86552
429.519,39.78333,     -10.86983
430.037,39.83500,     -10.87435
430.551,39.88667,     -10.87966
431.068,39.93833,     -10.88437
431.586,39.99000,     -10.88958
432.102,40.04167,     -10.89460
432.617,40.09333,     -10.89951
433.133,40.14500,     -10.90432
433.651,40.19667,     -10.90893
434.168,40.24833,     -10.91365
434.684,40.30000,     -10.91756
435.205,40.35167,     -10.92167
435.721,40.40333,     -10.92548
436.237,40.45500,     -10.92929
436.754,40.50667,     -10.93380
437.272,40.55833,     -10.93781
437.79,40.61000,     -10.94263
438.306,40.66167,     -10.94654
438.823,40.71333,     -10.95175
439.34,40.76500,     -10.95666
439.854,40.81667,     -10.96177
440.371,40.86833,     -10.96648
440.887,40.92000,     -10.97060
441.401,40.97167,     -10.97511
441.918,41.02333,     -10.97982
442.434,41.07500,     -10.98433
442.95,41.12667,     -10.98874
443.466,41.17833,     -10.99275
443.986,41.23000,     -10.99656
444.5,41.28167,     -11.00057
445.018,41.33333,     -11.00468
445.534,41.38500,     -11.00889
446.049,41.43667,     -11.01280
446.566,41.48833,     -11.01690
447.083,41.54000,     -11.02111
447.598,41.59167,     -11.02532
448.112,41.64333,     -11.02974
448.629,41.69500,     -11.03354
449.145,41.74667,     -11.03795
449.659,41.79833,     -11.04156
450.172,41.85000,     -11.04587
450.691,41.90167,     -11.04988
451.208,41.95333,     -11.05378
451.724,42.00500,     -11.05769
452.241,42.05667,     -11.06150
452.759,42.10833,     -11.06601
453.274,42.16000,     -11.07002
453.79,42.21167,     -11.07422
454.304,42.26333,     -11.07863
454.819,42.31500,     -11.08244
455.338,42.36667,     -11.08655
455.854,42.41833,     -11.08995
456.366,42.47000,     -11.09336
456.887,42.52167,     -11.09637
457.404,42.57333,     -11.09967
457.916,42.62500,     -11.10388
458.432,42.67667,     -11.10849
458.948,42.72833,     -11.11270
459.465,42.78000,     -11.11680
459.983,42.83167,     -11.11981
460.5,42.88333,     -11.12261
461.02,42.93500,     -11.12541
461.538,42.98667,     -11.12872
462.057,43.03833,     -11.13212
462.575,43.09000,     -11.13503
463.089,43.14167,     -11.13924
463.602,43.19333,     -11.14265
464.117,43.24500,     -11.14675
464.628,43.29667,     -11.15126
465.142,43.34833,     -11.15537
465.658,43.40000,     -11.15917
466.174,43.45167,     -11.16238
466.691,43.50333,     -11.16578
467.208,43.55500,     -11.16898
467.727,43.60667,     -11.17258
468.244,43.65833,     -11.17599
468.758,43.71000,     -11.17899
469.275,43.76167,     -11.18250
469.792,43.81333,     -11.18570
470.305,43.86500,     -11.18931
470.823,43.91667,     -11.19311
471.341,43.96833,     -11.19741
471.858,44.02000,     -11.19951
472.374,44.07167,     -11.20252
472.895,44.12333,     -11.20492
473.411,44.17500,     -11.20772
473.928,44.22667,     -11.21113
474.443,44.27833,     -11.21443
474.96,44.33000,     -11.21793
475.471,44.38167,     -11.22144
475.988,44.43333,     -11.22504
476.501,44.48500,     -11.22815
477.015,44.53667,     -11.23195
477.53,44.58833,     -11.23535
478.046,44.64000,     -11.23865
478.565,44.69167,     -11.24175
479.08,44.74333,     -11.24465
479.598,44.79500,     -11.24745
480.115,44.84667,     -11.24955
480.632,44.89833,     -11.25285
481.149,44.95000,     -11.25555
481.666,45.00167,     -11.25816
482.181,45.05333,     -11.26066
482.7,45.10500,     -11.26296
483.214,45.15667,     -11.26546
483.732,45.20833,     -11.26806
484.249,45.26000,     -11.27156
484.769,45.31167,     -11.27466
485.283,45.36333,     -11.27756
485.801,45.41500,     -11.28046
486.314,45.46667,     -11.28306
486.831,45.51833,     -11.28576
487.346,45.57000,     -11.28886
487.865,45.62167,     -11.29176
488.38,45.67333,     -11.29466
488.895,45.72500,     -11.29766
489.41,45.77667,     -11.30056
489.925,45.82833,     -11.30366
490.44,45.88000,     -11.30636
490.962,45.93167,     -11.30925
491.478,45.98333,     -11.31165
491.994,46.03500,     -11.31405
492.511,46.08667,     -11.31665
493.027,46.13833,     -11.31895
493.541,46.19000,     -11.32165
494.057,46.24167,     -11.32415
494.574,46.29333,     -11.32705
495.089,46.34500,     -11.32964
495.602,46.39667,     -11.33284
496.118,46.44833,     -11.33534
496.636,46.50000,     -11.33774
497.147,46.55167,     -11.34044
497.665,46.60333,     -11.34243
498.18,46.65500,     -11.34483
498.696,46.70667,     -11.34723
499.211,46.75833,     -11.34962
499.729,46.81000,     -11.35192
500.247,46.86167,     -11.35361
500.764,46.91333,     -11.35551
501.28,46.96500,     -11.35831
501.797,47.01667,     -11.36151
502.312,47.06833,     -11.36440
502.829,47.12000,     -11.36700
503.345,47.17167,     -11.36949
503.865,47.22333,     -11.37189
504.383,47.27500,     -11.37418
504.899,47.32667,     -11.37648
505.417,47.37833,     -11.37808
505.934,47.43000,     -11.38017
506.449,47.48167,     -11.38287
506.964,47.53333,     -11.38457
507.477,47.58500,     -11.38657
507.989,47.63667,     -11.38936
508.506,47.68833,     -11.39196
509.019,47.74000,     -11.39455
509.539,47.79167,     -11.39705
510.056,47.84333,     -11.39904
510.572,47.89500,     -11.40103
511.091,47.94667,     -11.40313
511.607,47.99833,     -11.40512
512.123,48.05000,     -11.40722
512.637,48.10167,     -11.40932
513.155,48.15333,     -11.41171
513.67,48.20500,     -11.41420
514.187,48.25667,     -11.41670
514.702,48.30833,     -11.41919
515.219,48.36000,     -11.42149
515.736,48.41167,     -11.42388
516.25,48.46333,     -11.42608
516.766,48.51500,     -11.42807
517.279,48.56667,     -11.43017
517.793,48.61833,     -11.43236
518.31,48.67000,     -11.43436
518.825,48.72167,     -11.43665
519.339,48.77333,     -11.43874
519.86,48.82500,     -11.44053
520.377,48.87667,     -11.44173
520.895,48.92833,     -11.44272
521.411,48.98000,     -11.44371
521.93,49.03167,     -11.44511
522.443,49.08333,     -11.44730
522.961,49.13500,     -11.44989
523.474,49.18667,     -11.45239
523.992,49.23833,     -11.45428
524.508,49.29000,     -11.45637
525.025,49.34167,     -11.45836
525.541,49.39333,     -11.45986
526.058,49.44500,     -11.46155
526.579,49.49667,     -11.46374
527.091,49.54833,     -11.46593
527.608,49.60000,     -11.46843
528.125,49.65167,     -11.47072
528.642,49.70333,     -11.47231
529.156,49.75500,     -11.47400
529.674,49.80667,     -11.47609
530.193,49.85833,     -11.47788
530.71,49.91000,     -11.47977
531.224,49.96167,     -11.48127
531.741,50.01333,     -11.48256
532.26,50.06500,     -11.48385
532.777,50.11667,     -11.48544
533.293,50.16833,     -11.48753
533.808,50.22000,     -11.48942
534.323,50.27167,     -11.49151
534.838,50.32333,     -11.49331
535.352,50.37500,     -11.49460
535.867,50.42667,     -11.49579
536.382,50.47833,     -11.49698
536.901,50.53000,     -11.49877
537.415,50.58167,     -11.50136
537.932,50.63333,     -11.50425
538.447,50.68500,     -11.50704
538.961,50.73667,     -11.50963
539.477,50.78833,     -11.51192
539.993,50.84000,     -11.51421
540.511,50.89167,     -11.51549
541.029,50.94333,     -11.51588
541.546,50.99500,     -11.51597
542.064,51.04667,     -11.51646
542.584,51.09833,     -11.51725
543.099,51.15000,     -11.51824
543.618,51.20167,     -11.51952
544.131,51.25333,     -11.52102
544.647,51.30500,     -11.52331
545.159,51.35667,     -11.52560
545.672,51.40833,     -11.52809
546.188,51.46000,     -11.52998
546.704,51.51167,     -11.53196
547.221,51.56333,     -11.53325
547.735,51.61500,     -11.53424
548.25,51.66667,     -11.53553
548.766,51.71833,     -11.53691
549.284,51.77000,     -11.53840
549.801,51.82167,     -11.53948
550.319,51.87333,     -11.54067
550.838,51.92500,     -11.54195
551.353,51.97667,     -11.54334
551.868,52.02833,     -11.54473
552.385,52.08000,     -11.54662
552.903,52.13167,     -11.54880
553.419,52.18333,     -11.55079
553.938,52.23500,     -11.55287
554.454,52.28667,     -11.55426
554.974,52.33833,     -11.55564
555.489,52.39000,     -11.55673
556.004,52.44167,     -11.55762
556.52,52.49333,     -11.55830
557.035,52.54500,     -11.55939
557.552,52.59667,     -11.56087
558.068,52.64833,     -11.56246
558.585,52.70000,     -11.56524
559.099,52.75167,     -11.56823
559.615,52.80333,     -11.57112
560.127,52.85500,     -11.57280
560.645,52.90667,     -11.57388
561.164,52.95833,     -11.57446
561.676,53.01000,     -11.57545
562.197,53.06167,     -11.57693
562.72,53.11333,     -11.57791
563.24,53.16500,     -11.57849
563.759,53.21667,     -11.57917
564.277,53.26833,     -11.58006
564.792,53.32000,     -11.58094
565.309,53.37167,     -11.58213
565.822,53.42333,     -11.58362
566.335,53.47500,     -11.58580
566.847,53.52667,     -11.58839
567.36,53.57833,     -11.59077
567.881,53.63000,     -11.59265
568.399,53.68167,     -11.59363
568.915,53.73333,     -11.59491
569.434,53.78500,     -11.59589
569.952,53.83667,     -11.59677
570.47,53.88833,     -11.59735
570.983,53.94000,     -11.59784
571.498,53.99167,     -11.59872
572.014,54.04333,     -11.59970
572.532,54.09500,     -11.60118
573.049,54.14667,     -11.60246
573.566,54.19833,     -11.60394
574.084,54.25000,     -11.60502
574.6,54.30167,     -11.60650
575.114,54.35333,     -11.60808
575.631,54.40500,     -11.61026
576.145,54.45667,     -11.61204
576.66,54.50833,     -11.61392
577.174,54.56000,     -11.61610
577.687,54.61167,     -11.61848
578.199,54.66333,     -11.62106
578.722,54.71500,     -11.62324
579.238,54.76667,     -11.62492
579.751,54.81833,     -11.62720
580.272,54.87000,     -11.62907
580.786,54.92167,     -11.62955
581.304,54.97333,     -11.62983
581.823,55.02500,     -11.62980
582.341,55.07667,     -11.62978
582.861,55.12833,     -11.62966
583.379,55.18000,     -11.62953
583.895,55.23167,     -11.62971
584.409,55.28333,     -11.63019
584.923,55.33500,     -11.63107
585.438,55.38667,     -11.63255
585.953,55.43833,     -11.63402
586.469,55.49000,     -11.63620
586.987,55.54167,     -11.63808
587.506,55.59333,     -11.63965
588.026,55.64500,     -11.64032
588.546,55.69667,     -11.64130
589.063,55.74833,     -11.64247
589.577,55.80000,     -11.64315
590.09,55.85167,     -11.64503
590.607,55.90333,     -11.64710
591.119,55.95500,     -11.64908
591.638,56.00667,     -11.64965
592.156,56.05833,     -11.64932
592.676,56.11000,     -11.64960
593.189,56.16167,     -11.65147
593.704,56.21333,     -11.65445
594.223,56.26500,     -11.65632
594.736,56.31667,     -11.65710
595.252,56.36833,     -11.65747
595.77,56.42000,     -11.65844
596.288,56.47167,     -11.65921
596.804,56.52333,     -11.66019
597.322,56.57500,     -11.66116
597.839,56.62667,     -11.66233
598.358,56.67833,     -11.66330
598.874,56.73000,     -11.66427
599.391,56.78167,     -11.66515
599.907,56.83333,     -11.66612
600.425,56.88500,     -11.66729
600.937,56.93667,     -11.66866
601.456,56.98833,     -11.67043
601.971,57.04000,     -11.67150
602.487,57.09167,     -11.67297
603.005,57.14333,     -11.67514
603.523,57.19500,     -11.67661
604.044,57.24667,     -11.67748
604.559,57.29833,     -11.67815
605.08,57.35000,     -11.67822
605.597,57.40167,     -11.67999
606.109,57.45333,     -11.68236
606.627,57.50500,     -11.68393
607.145,57.55667,     -11.68510
607.662,57.60833,     -11.68567
608.181,57.66000,     -11.68624
608.696,57.71167,     -11.68710
609.216,57.76333,     -11.68817
609.734,57.81500,     -11.68934
610.25,57.86667,     -11.68971
610.766,57.91833,     -11.69058
611.288,57.97000,     -11.69144
611.804,58.02167,     -11.69251
612.321,58.07333,     -11.69348
612.834,58.12500,     -11.69455
613.353,58.17667,     -11.69571
613.871,58.22833,     -11.69658
614.391,58.28000,     -11.69734
614.903,58.33167,     -11.69811
615.422,58.38333,     -11.69898
615.936,58.43500,     -11.69995
616.455,58.48667,     -11.70111
616.969,58.53833,     -11.70228
617.486,58.59000,     -11.70335
618.002,58.64167,     -11.70471
618.515,58.69333,     -11.70578
619.03,58.74500,     -11.70674
619.548,58.79667,     -11.70781
620.064,58.84833,     -11.70927
620.577,58.90000,     -11.71054
621.093,58.95167,     -11.71170
621.608,59.00333,     -11.71237
622.123,59.05500,     -11.71273
622.641,59.10667,     -11.71329
623.16,59.15833,     -11.71405
623.68,59.21000,     -11.71522
624.2,59.26167,     -11.71638
624.717,59.31333,     -11.71804
625.235,59.36500,     -11.71901
625.75,59.41667,     -11.71987
626.265,59.46833,     -11.72104
626.78,59.52000,     -11.72200
627.297,59.57167,     -11.72326
627.813,59.62333,     -11.72433
628.328,59.67500,     -11.72529
628.842,59.72667,     -11.72636
629.357,59.77833,     -11.72742
629.874,59.83000,     -11.72828
630.387,59.88167,     -11.72924
630.906,59.93333,     -11.72990
631.428,59.98500,     -11.73046
631.945,60.03667,     -11.73122
632.462,60.08833,     -11.73218
632.98,60.14000,     -11.73324
633.496,60.19167,     -11.73431
634.013,60.24333,     -11.73527
634.531,60.29500,     -11.73632
635.046,60.34667,     -11.73719
635.562,60.39833,     -11.73765
636.078,60.45000,     -11.73841
636.592,60.50167,     -11.73907
637.108,60.55333,     -11.73993
637.619,60.60500,     -11.74150
638.137,60.65667,     -11.74315
638.652,60.70833,     -11.74531
639.17,60.76000,     -11.74657
639.687,60.81167,     -11.74713
640.203,60.86333,     -11.74789
640.72,60.91500,     -11.74835
641.237,60.96667,     -11.74901
641.75,61.01833,     -11.74937
642.27,61.07000,     -11.74972
642.785,61.12167,     -11.75018
643.302,61.17333,     -11.75094
643.818,61.22500,     -11.75150
644.334,61.27667,     -11.75236
644.848,61.32833,     -11.75332
645.363,61.38000,     -11.75438
645.878,61.43167,     -11.75534
646.395,61.48333,     -11.75639
646.911,61.53500,     -11.75755
647.431,61.58667,     -11.75840
647.947,61.63833,     -11.75936
648.466,61.69000,     -11.76032
648.981,61.74167,     -11.76098
649.497,61.79333,     -11.76173
650.011,61.84500,     -11.76239
650.528,61.89667,     -11.76305
651.044,61.94833,     -11.76361
651.56,62.00000,     -11.76466
652.08,62.05167,     -11.76561
652.597,62.10333,     -11.76667
653.116,62.15500,     -11.76773
653.629,62.20667,     -11.76859
654.146,62.25833,     -11.76944
654.66,62.31000,     -11.77030
655.175,62.36167,     -11.77126
655.688,62.41333,     -11.77221
656.203,62.46500,     -11.77297
656.722,62.51667,     -11.77352
657.238,62.56833,     -11.77458
657.756,62.62000,     -11.77523
658.273,62.67167,     -11.77578
658.789,62.72333,     -11.77634
659.306,62.77500,     -11.77679
659.822,62.82667,     -11.77715
660.34,62.87833,     -11.77750
660.852,62.93000,     -11.77836
661.37,62.98167,     -11.77921
661.886,63.03333,     -11.78027
662.402,63.08500,     -11.78122
662.915,63.13667,     -11.78208
663.431,63.18833,     -11.78263
663.949,63.24000,     -11.78328
664.467,63.29167,     -11.78383
664.987,63.34333,     -11.78469
665.502,63.39500,     -11.78554
666.019,63.44667,     -11.78659
666.535,63.49833,     -11.78765
667.051,63.55000,     -11.78880
667.564,63.60167,     -11.78996
668.079,63.65333,     -11.79101
668.595,63.70500,     -11.79156
669.111,63.75667,     -11.79222
669.631,63.80833,     -11.79226
670.153,63.86000,     -11.79251
670.67,63.91167,     -11.79277
671.187,63.96333,     -11.79342
671.703,64.01500,     -11.79457
672.216,64.06667,     -11.79633
672.729,64.11833,     -11.79869
673.244,64.17000,     -11.80064
673.76,64.22167,     -11.80139
674.275,64.27333,     -11.80154
674.795,64.32500,     -11.80169
675.315,64.37667,     -11.80154
675.834,64.42833,     -11.80149
676.352,64.48000,     -11.80144
676.868,64.53167,     -11.80199
677.383,64.58333,     -11.80345
677.893,64.63500,     -11.80580
678.41,64.68667,     -11.80785
678.923,64.73833,     -11.80960
679.441,64.79000,     -11.81075
679.962,64.84167,     -11.81090
680.478,64.89333,     -11.81115
680.998,64.94500,     -11.81110
681.514,64.99667,     -11.81135
682.031,65.04833,     -11.81170
682.546,65.10000,     -11.81255
683.062,65.15167,     -11.81380
683.581,65.20333,     -11.81475
684.096,65.25500,     -11.81510
684.612,65.30667,     -11.81545
685.127,65.35833,     -11.81610
685.649,65.41000,     -11.81675
686.163,65.46167,     -11.81730
686.681,65.51333,     -11.81775
687.195,65.56500,     -11.81800
687.711,65.61667,     -11.81885
688.229,65.66833,     -11.81970
688.747,65.72000,     -11.82035
689.266,65.77167,     -11.82109
689.782,65.82333,     -11.82194
690.299,65.87500,     -11.82279
690.814,65.92667,     -11.82354
691.329,65.97833,     -11.82479
691.847,66.03000,     -11.82564
692.364,66.08167,     -11.82649
692.878,66.13333,     -11.82694
693.394,66.18500,     -11.82749
693.91,66.23667,     -11.82784
694.429,66.28833,     -11.82818
694.946,66.34000,     -11.82853
695.461,66.39167,     -11.82918
695.979,66.44333,     -11.82973
696.492,66.49500,     -11.83058
697.006,66.54667,     -11.83173
697.523,66.59833,     -11.83278
698.039,66.65000,     -11.83383
698.558,66.70167,     -11.83437
699.075,66.75333,     -11.83472
699.596,66.80500,     -11.83506
700.113,66.85667,     -11.83521
700.626,66.90833,     -11.83586
701.144,66.96000,     -11.83641
701.659,67.01167,     -11.83706
702.174,67.06333,     -11.83811
702.688,67.11500,     -11.83866
703.205,67.16667,     -11.83940
703.722,67.21833,     -11.84025
704.24,67.27000,     -11.84100
704.762,67.32167,     -11.84194
705.278,67.37333,     -11.84319
705.799,67.42500,     -11.84383
706.316,67.47667,     -11.84498
706.833,67.52833,     -11.84583
707.352,67.58000,     -11.84678
707.866,67.63167,     -11.84743
708.379,67.68333,     -11.84798
708.898,67.73500,     -11.84862
709.413,67.78667,     -11.84907
709.93,67.83833,     -11.84942
710.447,67.89000,     -11.84977
710.966,67.94167,     -11.85001
711.481,67.99333,     -11.84996
712,68.04500,     -11.84971
712.514,68.09667,     -11.84965
713.031,68.14833,     -11.85010
713.547,68.20000,     -11.85105
714.064,68.25167,     -11.85310
714.579,68.30333,     -11.85564
715.095,68.35500,     -11.85739
715.612,68.40667,     -11.85814
716.124,68.45833,     -11.85859
716.641,68.51000,     -11.85894
717.159,68.56167,     -11.85888
717.679,68.61333,     -11.85863
718.197,68.66500,     -11.85867
718.712,68.71667,     -11.85922
719.229,68.76833,     -11.85957
719.746,68.82000,     -11.86001
720.261,68.87167,     -11.86096
720.776,68.92333,     -11.86191
721.292,68.97500,     -11.86306
721.81,69.02667,     -11.86380
722.328,69.07833,     -11.86465
722.847,69.13000,     -11.86529
723.364,69.18167,     -11.86604
723.881,69.23333,     -11.86668
724.394,69.28500,     -11.86703
724.91,69.33667,     -11.86718
725.424,69.38833,     -11.86753
725.941,69.44000,     -11.86807
726.456,69.49167,     -11.86862
726.972,69.54333,     -11.86957
727.486,69.59500,     -11.87041
728,69.64667,     -11.87146
728.518,69.69833,     -11.87240
729.033,69.75000,     -11.87315
729.555,69.80167,     -11.87359
730.07,69.85333,     -11.87394
730.586,69.90500,     -11.87448
731.107,69.95667,     -11.87513
731.62,70.00833,     -11.87557
732.136,70.06000,     -11.87602
732.656,70.11167,     -11.87666
733.172,70.16333,     -11.87691
733.689,70.21500,     -11.87705
734.206,70.26667,     -11.87740
734.726,70.31833,     -11.87774
735.24,70.37000,     -11.87839
735.76,70.42167,     -11.87913
736.275,70.47333,     -11.87967
736.794,70.52500,     -11.88002
737.311,70.57667,     -11.88026
737.834,70.62833,     -11.88050
738.35,70.68000,     -11.88094
738.867,70.73167,     -11.88169
739.384,70.78333,     -11.88223
739.9,70.83500,     -11.88288
740.414,70.88667,     -11.88392
740.925,70.93833,     -11.88517
741.44,70.99000,     -11.88641
741.955,71.04167,     -11.88726
742.473,71.09333,     -11.88790
742.988,71.14500,     -11.88894
743.507,71.19667,     -11.88958
744.024,71.24833,     -11.89012
744.541,71.30000,     -11.89067
745.057,71.35167,     -11.89081
745.576,71.40333,     -11.89075
746.091,71.45500,     -11.89099
746.609,71.50667,     -11.89133
747.126,71.55833,     -11.89167
747.641,71.61000,     -11.89212
748.16,71.66167,     -11.89296
748.673,71.71333,     -11.89380
749.19,71.76500,     -11.89484
749.706,71.81667,     -11.89548
750.222,71.86833,     -11.89602
750.736,71.92000,     -11.89687
751.254,71.97167,     -11.89750
751.769,72.02333,     -11.89825
752.285,72.07500,     -11.89879
752.802,72.12667,     -11.89953
753.317,72.17833,     -11.89997
753.835,72.23000,     -11.90061
754.351,72.28167,     -11.90104
754.871,72.33333,     -11.90148
755.386,72.38500,     -11.90182
755.903,72.43667,     -11.90216
756.418,72.48833,     -11.90260
756.934,72.54000,     -11.90314
757.448,72.59167,     -11.90398
757.963,72.64333,     -11.90442
758.481,72.69500,     -11.90516
758.998,72.74667,     -11.90550
759.513,72.79833,     -11.90583
760.032,72.85000,     -11.90637
760.551,72.90167,     -11.90671
761.067,72.95333,     -11.90704
761.582,73.00500,     -11.90798
762.095,73.05667,     -11.90872
762.609,73.10833,     -11.90956
763.125,73.16000,     -11.91040
763.642,73.21167,     -11.91113
764.158,73.26333,     -11.91167
764.671,73.31500,     -11.91201
765.192,73.36667,     -11.91254
765.708,73.41833,     -11.91298
766.226,73.47000,     -11.91321
766.743,73.52167,     -11.91364
767.257,73.57333,     -11.91418
767.778,73.62500,     -11.91502
768.288,73.67667,     -11.91565
768.803,73.72833,     -11.91649
769.322,73.78000,     -11.91732
769.835,73.83167,     -11.91816
770.353,73.88333,     -11.91869
770.868,73.93500,     -11.91902
771.385,73.98667,     -11.91936
771.902,74.03833,     -11.91989
772.422,74.09000,     -11.92022
772.935,74.14167,     -11.92056
773.456,74.19333,     -11.92059
773.972,74.24500,     -11.92082
774.491,74.29667,     -11.92105
775.009,74.34833,     -11.92108
775.523,74.40000,     -11.92131
776.043,74.45167,     -11.92154
776.556,74.50333,     -11.92188
777.076,74.55500,     -11.92231
777.588,74.60667,     -11.92284
778.107,74.65833,     -11.92347
778.627,74.71000,     -11.92400
779.147,74.76167,     -11.92473
779.663,74.81333,     -11.92546
780.18,74.86500,     -11.92619
780.695,74.91667,     -11.92712
781.208,74.96833,     -11.92805
781.726,75.02000,     -11.92898
782.241,75.07167,     -11.92961
782.756,75.12333,     -11.93014
783.274,75.17500,     -11.93076
783.794,75.22667,     -11.93119
784.309,75.27833,     -11.93142
784.827,75.33000,     -11.93164
785.343,75.38167,     -11.93197
785.856,75.43333,     -11.93210
786.377,75.48500,     -11.93263
786.891,75.53667,     -11.93275
787.41,75.58833,     -11.93328
787.928,75.64000,     -11.93380
788.444,75.69167,     -11.93443
788.963,75.74333,     -11.93455
789.478,75.79500,     -11.93488
789.993,75.84667,     -11.93500
790.505,75.89833,     -11.93523
791.024,75.95000,     -11.93566
791.543,76.00167,     -11.93638
792.061,76.05333,     -11.93730
792.581,76.10500,     -11.93822
793.1,76.15667,     -11.93894
793.615,76.20833,     -11.93917
794.133,76.26000,     -11.93919
794.648,76.31167,     -11.93941
795.166,76.36333,     -11.93943
795.683,76.41500,     -11.93956
796.2,76.46667,     -11.93948
796.718,76.51833,     -11.93980
797.233,76.57000,     -11.94042
797.748,76.62167,     -11.94124
798.265,76.67333,     -11.94226
798.781,76.72500,     -11.94268
799.298,76.77667,     -11.94340
799.515,76.79833,     -11.94363